loggingTime(txt),locationTimestamp_since1970(s),locationLatitude(WGS84),locationLongitude(WGS84),locationAltitude(m),locationSpeed(m/s),locationCourse(°),locationVerticalAccuracy(m),locationHorizontalAccuracy(m),locationFloor(Z),accelerometerTimestamp_sinceReboot(s),accelerometerAccelerationX(G),accelerometerAccelerationY(G),accelerometerAccelerationZ(G),motionTimestamp_sinceReboot(s),motionYaw(rad),motionRoll(rad),motionPitch(rad),motionRotationRateX(rad/s),motionRotationRateY(rad/s),motionRotationRateZ(rad/s),motionUserAccelerationX(G),motionUserAccelerationY(G),motionUserAccelerationZ(G),motionAttitudeReferenceFrame(txt),motionQuaternionX(R),motionQuaternionY(R),motionQuaternionZ(R),motionQuaternionW(R),motionGravityX(G),motionGravityY(G),motionGravityZ(G),activityTimestamp_sinceReboot(s),activity(txt),activityActivityConfidence(Z),activityActivityStartDate(txt),pedometerStartDate(txt),pedometerNumberofSteps(N),pedometerAverageActivePace(s/m),pedometerCurrentPace(s/m),pedometerCurrentCadence(steps/s),pedometerDistance(m),pedometerFloorAscended(N),pedometerFloorDescended(N),pedometerEndDate(txt),altimeterTimestamp_sinceReboot(s),altimeterReset(bool),altimeterRelativeAltitude(m),altimeterPressure(kPa),batteryState,batteryLevel
2020-05-25 11:39:16.753 -0400,1590421156.000391,35.93112211702147,-79.0316150707164,88.6866,0,295.0727065784843,2.337994798816927,5.32525279714436,-9999,7311.501651875001,-0.0035858154296875,-0.3458099365234375,-0.9457550048828125,7311.461766875001,-0.2398122467460924,-0.003204612066150434,0.3693868175802522,-0.01638487353920937,-0.1247406974434853,-0.02960707806050777,-0.007448478136211634,0.0002933144569396973,-0.01756209135055542,XArbitraryZVertical,0.1821379408957886,-0.02353117365569636,-0.1178765969934678,0.9758980643589337,-0.002988452324643731,-0.3610436916351318,-0.9325441122055054,7300.38201825,unknown,2,2020-05-25 11:39:05.605 -0400,2020-05-25 10:03:58.294 -0400,2281,1.124595,0,0,1799.878,0,0,2020-05-25 11:39:03.060 -0400,612113955.8211869,0,0.4492188,101.2326,1,0.85
2020-05-25 11:39:16.774 -0400,1590421156.000391,35.93112211702147,-79.0316150707164,88.6866,0,295.0727065784843,2.337994798816927,5.32525279714436,-9999,7311.536550875,0.0093841552734375,-0.3665313720703125,-0.9298248291015625,7311.521593875001,-0.2402064027131154,-0.002269827537298298,0.3744867103326806,0.1633872836828232,0.01318467780947685,-0.003893574699759483,0.004538713023066521,0.01058372855186462,-0.01102083921432495,XArbitraryZVertical,0.1846764526960359,-0.02341067096702409,-0.1179301149884331,0.9754173025618202,-0.00211251643486321,-0.3657948672771454,-0.9306930899620056,7300.38201825,unknown,2,2020-05-25 11:39:05.605 -0400,2020-05-25 10:03:58.294 -0400,2281,1.124595,0,0,1799.878,0,0,2020-05-25 11:39:03.060 -0400,612113955.8211869,0,0.4492188,101.2326,1,0.85
2020-05-25 11:39:16.795 -0400,1590421156.000391,35.93112211702147,-79.0316150707164,88.6866,0,295.0727065784843,2.337994798816927,5.32525279714436,-9999,7311.571449875,0.0010833740234375,-0.3666229248046875,-0.925201416015625,7311.521593875001,-0.2402064027131154,-0.002269827537298298,0.3744867103326806,0.1633872836828232,0.01318467780947685,-0.003893574699759483,0.004538713023066521,0.01058372855186462,-0.01102083921432495,XArbitraryZVertical,0.1846764526960359,-0.02341067096702409,-0.1179301149884331,0.9754173025618202,-0.00211251643486321,-0.3657948672771454,-0.9306930899620056,7300.38201825,unknown,2,2020-05-25 11:39:05.605 -0400,2020-05-25 10:03:58.294 -0400,2281,1.124595,0,0,1799.878,0,0,2020-05-25 11:39:03.060 -0400,612113955.8211869,0,0.4492188,101.2326,1,0.85
2020-05-25 11:39:16.830 -0400,1590421156.000391,35.93112211702147,-79.0316150707164,88.6866,0,295.0727065784843,2.337994798816927,5.32525279714436,-9999,7311.606349875001,-0.0034332275390625,-0.3662872314453125,-0.9265899658203125,7311.581421875,-0.2392410902932549,-0.003718119887854416,0.3793277152902675,-0.009738954715430737,-0.04102982580661774,0.007180198095738888,0.002904588356614113,0.003793627023696899,0.00597691535949707,XArbitraryZVertical,0.1869633760642458,-0.02431081244551365,-0.1175432943764545,0.9750062293223777,-0.003453804878517985,-0.3702960610389709,-0.9289073348045349,7300.38201825,unknown,2,2020-05-25 11:39:05.605 -0400,2020-05-25 10:03:58.294 -0400,2281,1.124595,0,0,1799.878,0,0,2020-05-25 11:39:03.060 -0400,612113955.8211869,0,0.4492188,101.2326,1,0.85
2020-05-25 11:39:16.865 -0400,1590421156.000391,35.93112211702147,-79.0316150707164,88.6866,0,295.0727065784843,2.337994798816927,5.32525279714436,-9999,7311.641248875,-0.022857666015625,-0.3482208251953125,-0.9332427978515625,7311.581421875,-0.2392410902932549,-0.003718119887854416,0.3793277152902675,-0.009738954715430737,-0.04102982580661774,0.007180198095738888,0.002904588356614113,0.003793627023696899,0.00597691535949707,XArbitraryZVertical,0.1869633760642458,-0.02431081244551365,-0.1175432943764545,0.9750062293223777,-0.003453804878517985,-0.3702960610389709,-0.9289073348045349,7300.38201825,unknown,2,2020-05-25 11:39:05.605 -0400,2020-05-25 10:03:58.294 -0400,2281,1.124595,0,0,1799.878,0,0,2020-05-25 11:39:03.060 -0400,612113955.8211869,0,0.4492188,101.2326,1,0.85
2020-05-25 11:39:16.900 -0400,1590421156.000391,35.93112211702147,-79.0316150707164,88.6866,0,295.0727065784843,2.337994798816927,5.32525279714436,-9999,7311.676148875001,0.0040130615234375,-0.397705078125,-0.916717529296875,7311.641248875,-0.2385853886480055,-0.006125117164930203,0.3780911303956438,0.1715951561927795,0.008602974936366081,-0.003920921124517918,-0.01379281841218472,0.01886481046676636,-0.004654824733734131,XArbitraryZVertical,0.1862271555042752,-0.02535104804203015,-0.117460568623617,0.9751306059458894,-0.005692470353096724,-0.3691470921039581,-0.9293535351753235,7300.38201825,unknown,2,2020-05-25 11:39:05.605 -0400,2020-05-25 10:03:58.294 -0400,2281,1.124595,0,0,1799.878,0,0,2020-05-25 11:39:03.060 -0400,612113955.8211869,0,0.4492188,101.2326,1,0.85
2020-05-25 11:39:16.934 -0400,1590421156.000391,35.93112211702147,-79.0316150707164,88.6866,0,295.0727065784843,2.337994798816927,5.32525279714436,-9999,7311.711047875,-0.0005035400390625,-0.384796142578125,-0.9236297607421875,7311.701076875001,-0.2386146981343797,-0.004797903485580388,0.3814772705541988,-0.07496082782745361,-0.02367586828768253,0.03113320469856262,0.01017517782747746,-0.02683347463607788,0.008485615253448486,XArbitraryZVertical,0.1879556033868175,-0.02490380194285216,-0.1173171748571646,0.9748277229367313,-0.004452992230653763,-0.3722919523715973,-0.9281049966812134,7300.38201825,unknown,2,2020-05-25 11:39:05.605 -0400,2020-05-25 10:03:58.294 -0400,2281,1.124595,0,0,1799.878,0,0,2020-05-25 11:39:03.060 -0400,612113955.8211869,0,0.4492188,101.2326,1,0.85
2020-05-25 11:39:16.969 -0400,1590421156.000391,35.93112211702147,-79.0316150707164,88.6866,0,295.0727065784843,2.337994798816927,5.32525279714436,-9999,7311.745946875,-0.012054443359375,-0.3510589599609375,-0.933441162109375,7311.701076875001,-0.2386146981343797,-0.004797903485580388,0.3814772705541988,-0.07496082782745361,-0.02367586828768253,0.03113320469856262,0.01017517782747746,-0.02683347463607788,0.008485615253448486,XArbitraryZVertical,0.1879556033868175,-0.02490380194285216,-0.1173171748571646,0.9748277229367313,-0.004452992230653763,-0.3722919523715973,-0.9281049966812134,7300.38201825,unknown,2,2020-05-25 11:39:05.605 -0400,2020-05-25 10:03:58.294 -0400,2281,1.124595,0,0,1799.878,0,0,2020-05-25 11:39:03.060 -0400,612113955.8211869,0,0.4492188,101.2326,1,0.85
2020-05-25 11:39:17.004 -0400,1590421156.000391,35.93112211702147,-79.0316150707164,88.6866,0,295.0727065784843,2.337994798816927,5.32525279714436,-9999,7311.780846875001,-0.0057220458984375,-0.3549041748046875,-0.932220458984375,7311.760903875001,-0.236800388940156,-0.007660168786583139,0.37600286691675,-0.04501784965395927,-0.0145963542163372,-0.005657186731696129,-0.005478561390191317,0.02067691087722778,-0.001225471496582031,XArbitraryZVertical,0.1851416206950424,-0.02581292938082688,-0.1167523400326237,0.9754102801927463,-0.00712495855987072,-0.3672055304050446,-0.9301125407218933,7300.38201825,unknown,2,2020-05-25 11:39:05.605 -0400,2020-05-25 10:03:58.294 -0400,2281,1.124595,0,0,1799.878,0,0,2020-05-25 11:39:03.060 -0400,612113955.8211869,0,0.4492188,101.2326,1,0.85
2020-05-25 11:39:17.039 -0400,1590421156.000391,35.93112211702147,-79.0316150707164,88.6866,0,295.0727065784843,2.337994798816927,5.32525279714436,-9999,7311.815745875,-0.0048675537109375,-0.3648223876953125,-0.9334259033203125,7311.760903875001,-0.236800388940156,-0.007660168786583139,0.37600286691675,-0.04501784965395927,-0.0145963542163372,-0.005657186731696129,-0.005478561390191317,0.02067691087722778,-0.001225471496582031,XArbitraryZVertical,0.1851416206950424,-0.02581292938082688,-0.1167523400326237,0.9754102801927463,-0.00712495855987072,-0.3672055304050446,-0.9301125407218933,7300.38201825,unknown,2,2020-05-25 11:39:05.605 -0400,2020-05-25 10:03:58.294 -0400,2281,1.124595,0,0,1799.878,0,0,2020-05-25 11:39:03.060 -0400,612113955.8211869,0,0.4492188,101.2326,1,0.85
2020-05-25 11:39:17.074 -0400,1590421156.000391,35.93112211702147,-79.0316150707164,88.6866,0,295.0727065784843,2.337994798816927,5.32525279714436,-9999,7311.850644875,-0.011444091796875,-0.362060546875,-0.9292449951171875,7311.820731875,-0.2380641941467589,-0.007823814235468114,0.3760343773368699,0.0016700275009498,-0.02547776326537132,-0.001700811088085175,0.002409770153462887,0.002426296472549438,-0.00332874059677124,XArbitraryZVertical,0.1851310556006154,-0.02601155374937994,-0.1173835499667619,0.9753311532634191,-0.007277076598256826,-0.3672348260879517,-0.9300997853279114,7300.38201825,unknown,2,2020-05-25 11:39:05.605 -0400,2020-05-25 10:03:58.294 -0400,2281,1.124595,0,0,1799.878,0,0,2020-05-25 11:39:03.060 -0400,612113955.8211869,0,0.4492188,101.2326,1,0.85
2020-05-25 11:39:17.109 -0400,1590421156.000391,35.93112211702147,-79.0316150707164,88.6866,0,295.0727065784843,2.337994798816927,5.32525279714436,-9999,7311.885544875,-0.0105438232421875,-0.3641204833984375,-0.92645263671875,7311.880558875,-0.237994774507889,-0.008996880299883093,0.3742249315864455,-0.02819226495921612,-0.002907739952206612,0.01238373201340437,4.309229552745819e-05,0.001764863729476929,-1.990795135498047e-05,XArbitraryZVertical,0.1841804393710064,-0.02647241954517205,-0.1174743147555799,0.9754878276202255,-0.008374104276299477,-0.3655512034893036,-0.9307535290718079,7300.38201825,unknown,2,2020-05-25 11:39:05.605 -0400,2020-05-25 10:03:58.294 -0400,2281,1.124595,0,0,1799.878,0,0,2020-05-25 11:39:03.060 -0400,612113955.8211869,0,0.4492188,101.2326,1,0.85
2020-05-25 11:39:17.144 -0400,1590421156.000391,35.93112211702147,-79.0316150707164,88.6866,0,295.0727065784843,2.337994798816927,5.32525279714436,-9999,7311.920443875,-0.0091094970703125,-0.3661651611328125,-0.9323272705078125,7311.880558875,-0.237994774507889,-0.008996880299883093,0.3742249315864455,-0.02819226495921612,-0.002907739952206612,0.01238373201340437,4.309229552745819e-05,0.001764863729476929,-1.990795135498047e-05,XArbitraryZVertical,0.1841804393710064,-0.02647241954517205,-0.1174743147555799,0.9754878276202255,-0.008374104276299477,-0.3655512034893036,-0.9307535290718079,7300.38201825,unknown,2,2020-05-25 11:39:05.605 -0400,2020-05-25 10:03:58.294 -0400,2281,1.124595,0,0,1799.878,0,0,2020-05-25 11:39:03.060 -0400,612113955.8211869,0,0.4492188,101.2326,1,0.85
2020-05-25 11:39:17.179 -0400,1590421156.000391,35.93112211702147,-79.0316150707164,88.6866,0,295.0727065784843,2.337994798816927,5.32525279714436,-9999,7311.955342875,-0.013031005859375,-0.3444366455078125,-0.9315032958984375,7311.940386875001,-0.2379955595006188,-0.009668110205423545,0.3714125688585563,-0.04445938393473625,-0.02211019769310951,-0.01425310410559177,6.385147571563721e-06,0.007599115371704102,-0.001671671867370605,XArbitraryZVertical,0.1827688159813744,-0.02663708791895149,-0.1175608144643259,0.9757383662800126,-0.009008755907416344,-0.3629320561885834,-0.9317720532417297,7300.38201825,unknown,2,2020-05-25 11:39:05.605 -0400,2020-05-25 10:03:58.294 -0400,2281,1.124595,0,0,1799.878,0,0,2020-05-25 11:39:03.060 -0400,612113955.8211869,0,0.4492188,101.2326,1,0.85
2020-05-25 11:39:17.214 -0400,1590421156.000391,35.93112211702147,-79.0316150707164,88.6866,0,295.0727065784843,2.337994798816927,5.32525279714436,-9999,7311.990242875,-0.0084686279296875,-0.362548828125,-0.9304962158203125,7311.940386875001,-0.2379955595006188,-0.009668110205423545,0.3714125688585563,-0.04445938393473625,-0.02211019769310951,-0.01425310410559177,6.385147571563721e-06,0.007599115371704102,-0.001671671867370605,XArbitraryZVertical,0.1827688159813744,-0.02663708791895149,-0.1175608144643259,0.9757383662800126,-0.009008755907416344,-0.3629320561885834,-0.9317720532417297,7300.38201825,unknown,2,2020-05-25 11:39:05.605 -0400,2020-05-25 10:03:58.294 -0400,2281,1.124595,0,0,1799.878,0,0,2020-05-25 11:39:03.060 -0400,612113955.8211869,0,0.4492188,101.2326,1,0.85
2020-05-25 11:39:17.253 -0400,1590421156.000391,35.93112211702147,-79.0316150707164,88.6866,0,295.0727065784843,2.337994798816927,5.32525279714436,-9999,7312.025141875,-0.0060272216796875,-0.36260986328125,-0.9327392578125,7312.000213875001,-0.2390021491959954,-0.009298117008180371,0.3711477870286211,-0.01049555838108063,0.003556550480425358,-0.01573015935719013,0.002775306813418865,-0.002550601959228516,0.001235306262969971,XArbitraryZVertical,0.1826480224267301,-0.02653317437621137,-0.1180203852873476,0.9757083353649707,-0.008664898574352264,-0.3626852929592133,-0.9318713545799255,7300.38201825,unknown,2,2020-05-25 11:39:05.605 -0400,2020-05-25 10:03:58.294 -0400,2281,1.124595,0,0,1799.878,0,0,2020-05-25 11:39:03.060 -0400,612113955.8211869,0,0.4492188,101.2326,1,0.85
2020-05-25 11:39:17.284 -0400,1590421157.000398,35.93111615104259,-79.03160755546574,88.66673,0,295.0727113615819,2.146058746795882,5.650931771847998,-9999,7312.060041875,-0.0117645263671875,-0.356292724609375,-0.92681884765625,7312.000213875001,-0.2390021491959954,-0.009298117008180371,0.3711477870286211,-0.01049555838108063,0.003556550480425358,-0.01573015935719013,0.002775306813418865,-0.002550601959228516,0.001235306262969971,XArbitraryZVertical,0.1826480224267301,-0.02653317437621137,-0.1180203852873476,0.9757083353649707,-0.008664898574352264,-0.3626852929592133,-0.9318713545799255,7300.38201825,unknown,2,2020-05-25 11:39:05.605 -0400,2020-05-25 10:03:58.294 -0400,2281,1.124595,0,0,1799.878,0,0,2020-05-25 11:39:03.060 -0400,612113955.8211869,0,0.4492188,101.2326,1,0.85
2020-05-25 11:39:17.318 -0400,1590421157.000398,35.93111615104259,-79.03160755546574,88.66673,0,295.0727113615819,2.146058746795882,5.650931771847998,-9999,7312.094940875,-0.004180908203125,-0.3585968017578125,-0.9334716796875,7312.060041875,-0.2399177625467912,-0.009668991317585508,0.3691418259945915,-0.03835435584187508,-0.004557035863399506,-0.01454062666743994,-7.640011608600616e-05,0.003773242235183716,0.00529932975769043,XArbitraryZVertical,0.1816350295044525,-0.02668062317417328,-0.1185182845668219,0.9758330135990603,-0.009017521515488625,-0.3608151972293854,-0.9325937032699585,7300.38201825,unknown,2,2020-05-25 11:39:05.605 -0400,2020-05-25 10:03:58.294 -0400,2281,1.124595,0,0,1799.878,0,0,2020-05-25 11:39:03.060 -0400,612113955.8211869,0,0.4492188,101.2326,1,0.85
2020-05-25 11:39:17.354 -0400,1590421157.000398,35.93111615104259,-79.03160755546574,88.66673,0,295.0727113615819,2.146058746795882,5.650931771847998,-9999,7312.129839875,-0.01593017578125,-0.3449249267578125,-0.9378662109375,7312.119868875,-0.2405137389781019,-0.01028817942136939,0.3668113385996797,-0.03607069328427315,-0.02023346722126007,-0.009731605648994446,-0.002419990487396717,0.00826677680015564,0.0001046657562255859,XArbitraryZVertical,0.1804528546513114,-0.02690050371392543,-0.1188850117907264,0.9760017088385456,-0.009603595361113548,-0.358640730381012,-0.9334262609481812,7300.38201825,unknown,2,2020-05-25 11:39:05.605 -0400,2020-05-25 10:03:58.294 -0400,2281,1.124595,0,0,1799.878,0,0,2020-05-25 11:39:03.060 -0400,612113955.8211869,0,0.4492188,101.2326,1,0.85
2020-05-25 11:39:17.388 -0400,1590421157.000398,35.93111615104259,-79.03160755546574,88.66673,0,295.0727113615819,2.146058746795882,5.650931771847998,-9999,7312.164739875,-0.007293701171875,-0.3504180908203125,-0.9322509765625,7312.119868875,-0.2405137389781019,-0.01028817942136939,0.3668113385996797,-0.03607069328427315,-0.02023346722126007,-0.009731605648994446,-0.002419990487396717,0.00826677680015564,0.0001046657562255859,XArbitraryZVertical,0.1804528546513114,-0.02690050371392543,-0.1188850117907264,0.9760017088385456,-0.009603595361113548,-0.358640730381012,-0.9334262609481812,7300.38201825,unknown,2,2020-05-25 11:39:05.605 -0400,2020-05-25 10:03:58.294 -0400,2281,1.124595,0,0,1799.878,0,0,2020-05-25 11:39:03.060 -0400,612113955.8211869,0,0.4492188,101.2326,1,0.85
2020-05-25 11:39:17.424 -0400,1590421157.000398,35.93111615104259,-79.03160755546574,88.66673,0,295.0727113615819,2.146058746795882,5.650931771847998,-9999,7312.199638875,-0.007415771484375,-0.3560028076171875,-0.930328369140625,7312.179695875,-0.2418912312672246,-0.009745951869342767,0.3667924248220694,0.01792090199887753,-0.003735716687515378,-0.01923150196671486,0.003680980764329433,0.002160847187042236,-0.005529224872589111,XArbitraryZVertical,0.1804574515299462,-0.02675908039912313,-0.1195084358498259,0.9759286527741952,-0.00909753143787384,-0.3586230576038361,-0.9334381222724915,7300.38201825,unknown,2,2020-05-25 11:39:05.605 -0400,2020-05-25 10:03:58.294 -0400,2281,1.124595,0,0,1799.878,0,0,2020-05-25 11:39:03.060 -0400,612113955.8211869,0,0.4492188,101.2326,1,0.85
2020-05-25 11:39:17.458 -0400,1590421157.000398,35.93111615104259,-79.03160755546574,88.66673,0,295.0727113615819,2.146058746795882,5.650931771847998,-9999,7312.234537875001,-0.0067596435546875,-0.3575286865234375,-0.9338836669921875,7312.179695875,-0.2418912312672246,-0.009745951869342767,0.3667924248220694,0.01792090199887753,-0.003735716687515378,-0.01923150196671486,0.003680980764329433,0.002160847187042236,-0.005529224872589111,XArbitraryZVertical,0.1804574515299462,-0.02675908039912313,-0.1195084358498259,0.9759286527741952,-0.00909753143787384,-0.3586230576038361,-0.9334381222724915,7300.38201825,unknown,2,2020-05-25 11:39:05.605 -0400,2020-05-25 10:03:58.294 -0400,2281,1.124595,0,0,1799.878,0,0,2020-05-25 11:39:03.060 -0400,612113955.8211869,0,0.4492188,101.2326,1,0.85
2020-05-25 11:39:17.494 -0400,1590421157.000398,35.93111615104259,-79.03160755546574,88.66673,0,295.0727113615819,2.146058746795882,5.650931771847998,-9999,7312.269437875,-0.011932373046875,-0.3542327880859375,-0.9339599609375,7312.239523875,-0.24178666000167,-0.01052278612329566,0.3669324346481251,0.003909479826688766,-0.01367569901049137,0.01838837936520576,0.003062833100557327,0.001238793134689331,-0.0005056262016296387,XArbitraryZVertical,0.1804807826495175,-0.02713695094409051,-0.1195263192151539,0.9759116596883223,-0.009822126477956772,-0.3587537705898285,-0.9333805441856384,7300.38201825,unknown,2,2020-05-25 11:39:05.605 -0400,2020-05-25 10:03:58.294 -0400,2281,1.124595,0,0,1799.878,0,0,2020-05-25 11:39:03.060 -0400,612113955.8211869,0,0.4492188,101.2326,1,0.85
2020-05-25 11:39:17.528 -0400,1590421157.000398,35.93111615104259,-79.03160755546574,88.66673,0,295.0727113615819,2.146058746795882,5.650931771847998,-9999,7312.304336875,-0.017059326171875,-0.344879150390625,-0.9311370849609375,7312.299350875001,-0.2406716469159651,-0.01163589887913307,0.3667968725797995,0.02534286491572857,0.005488674156367779,0.002788879908621311,-0.007219631224870682,0.01470780372619629,0.0009047389030456543,XArbitraryZVertical,0.1803634675918585,-0.02757158217208571,-0.1190837615714687,0.9759752569677943,-0.01086164359003305,-0.3586272299289703,-0.9334176778793335,7300.38201825,unknown,2,2020-05-25 11:39:05.605 -0400,2020-05-25 10:03:58.294 -0400,2281,1.124595,0,0,1799.878,0,0,2020-05-25 11:39:03.060 -0400,612113955.8211869,0,0.4492188,101.2326,1,0.85
2020-05-25 11:39:17.563 -0400,1590421157.000398,35.93111615104259,-79.03160755546574,88.66673,0,295.0727113615819,2.146058746795882,5.650931771847998,-9999,7312.339236375001,-0.010040283203125,-0.3657989501953125,-0.9324493408203125,7312.299350875001,-0.2406716469159651,-0.01163589887913307,0.3667968725797995,0.02534286491572857,0.005488674156367779,0.002788879908621311,-0.007219631224870682,0.01470780372619629,0.0009047389030456543,XArbitraryZVertical,0.1803634675918585,-0.02757158217208571,-0.1190837615714687,0.9759752569677943,-0.01086164359003305,-0.3586272299289703,-0.9334176778793335,7300.38201825,unknown,2,2020-05-25 11:39:05.605 -0400,2020-05-25 10:03:58.294 -0400,2281,1.124595,0,0,1799.878,0,0,2020-05-25 11:39:03.060 -0400,612113955.8211869,0,0.4492188,101.2326,1,0.85
2020-05-25 11:39:17.598 -0400,1590421157.000398,35.93111615104259,-79.03160755546574,88.66673,0,295.0727113615819,2.146058746795882,5.650931771847998,-9999,7312.374136375,-0.0077056884765625,-0.3529510498046875,-0.932342529296875,7312.359179375,-0.240674971784696,-0.01059410452752409,0.3675344182873512,-0.01416379678994417,0.001846002414822578,0.005374075844883919,0.003767984919250011,-0.007156163454055786,0.00327533483505249,XArbitraryZVertical,0.1807854159862767,-0.02710666547446045,-0.1189852393783846,0.975922249614417,-0.009886403568089008,-0.3593156039714813,-0.9331637024879456,7300.38201825,unknown,2,2020-05-25 11:39:05.605 -0400,2020-05-25 10:03:58.294 -0400,2281,1.124595,0,0,1799.878,0,0,2020-05-25 11:39:03.060 -0400,612113955.8211869,0,0.4492188,101.2326,1,0.85
2020-05-25 11:39:17.633 -0400,1590421157.000398,35.93111615104259,-79.03160755546574,88.66673,0,295.0727113615819,2.146058746795882,5.650931771847998,-9999,7312.409035375001,-0.015594482421875,-0.353515625,-0.93121337890625,7312.359179375,-0.240674971784696,-0.01059410452752409,0.3675344182873512,-0.01416379678994417,0.001846002414822578,0.005374075844883919,0.003767984919250011,-0.007156163454055786,0.00327533483505249,XArbitraryZVertical,0.1807854159862767,-0.02710666547446045,-0.1189852393783846,0.975922249614417,-0.009886403568089008,-0.3593156039714813,-0.9331637024879456,7300.38201825,unknown,2,2020-05-25 11:39:05.605 -0400,2020-05-25 10:03:58.294 -0400,2281,1.124595,0,0,1799.878,0,0,2020-05-25 11:39:03.060 -0400,612113955.8211869,0,0.4492188,101.2326,1,0.85
2020-05-25 11:39:17.668 -0400,1590421157.000398,35.93111615104259,-79.03160755546574,88.66673,0,295.0727113615819,2.146058746795882,5.650931771847998,-9999,7312.443935375,-0.0086669921875,-0.362335205078125,-0.9320220947265625,7312.419006375,-0.2403043938658413,-0.01059422752602632,0.3670403607079931,0.0005887841107323766,0.02112089656293392,-0.01085604261606932,-0.005019086413085461,0.003368943929672241,0.002415120601654053,XArbitraryZVertical,0.1805492802387668,-0.02704435384460459,-0.1188085514771821,0.9759892094079493,-0.009888398461043835,-0.3588545024394989,-0.9333411455154419,7300.38201825,unknown,2,2020-05-25 11:39:05.605 -0400,2020-05-25 10:03:58.294 -0400,2281,1.124595,0,0,1799.878,0,0,2020-05-25 11:39:03.060 -0400,612113955.8211869,0,0.4492188,101.2326,1,0.85
2020-05-25 11:39:17.703 -0400,1590421157.000398,35.93111615104259,-79.03160755546574,88.66673,0,295.0727113615819,2.146058746795882,5.650931771847998,-9999,7312.478834375001,-0.01043701171875,-0.3437652587890625,-0.9351806640625,7312.419006375,-0.2403043938658413,-0.01059422752602632,0.3670403607079931,0.0005887841107323766,0.02112089656293392,-0.01085604261606932,-0.005019086413085461,0.003368943929672241,0.002415120601654053,XArbitraryZVertical,0.1805492802387668,-0.02704435384460459,-0.1188085514771821,0.9759892094079493,-0.009888398461043835,-0.3588545024394989,-0.9333411455154419,7300.38201825,unknown,2,2020-05-25 11:39:05.605 -0400,2020-05-25 10:03:58.294 -0400,2281,1.124595,0,0,1799.878,0,0,2020-05-25 11:39:03.060 -0400,612113955.8211869,0,0.4492188,101.2326,1,0.85
2020-05-25 11:39:17.747 -0400,1590421157.000398,35.93111615104259,-79.03160755546574,88.66673,0,295.0727113615819,2.146058746795882,5.650931771847998,-9999,7312.513733375001,-0.0070953369140625,-0.3643646240234375,-0.9301300048828125,7312.478834375001,-0.2410836987852503,-0.009539710822614294,0.366027204060334,0.01444893982261419,0.01150555349886417,-0.006749948486685753,-0.001818982884287834,0.0109221339225769,-0.004108786582946777,XArbitraryZVertical,0.1801070102937307,-0.02654066381703714,-0.1191023689532132,0.9760489868482026,-0.008907632902264595,-0.3579086363315582,-0.9337140917778015,7300.38201825,unknown,2,2020-05-25 11:39:05.605 -0400,2020-05-25 10:03:58.294 -0400,2281,1.124595,0,0,1799.878,0,0,2020-05-25 11:39:03.060 -0400,612113955.8211869,0,0.4492188,101.2326,1,0.85
2020-05-25 11:39:17.772 -0400,1590421157.000398,35.93111615104259,-79.03160755546574,88.66673,0,295.0727113615819,2.146058746795882,5.650931771847998,-9999,7312.548633375,-0.0061187744140625,-0.36981201171875,-0.9296112060546875,7312.538661375001,-0.2407242245932052,-0.008703702267167461,0.3659812187160538,-0.06980867683887482,0.009641075506806374,0.02314323745667934,0.0004522930830717087,-0.01516750454902649,0.005894005298614502,XArbitraryZVertical,0.1801390338237738,-0.02609759376648558,-0.1188520463639139,0.976085498796329,-0.008127179928123951,-0.3578656911849976,-0.9337376952171326,7300.38201825,unknown,2,2020-05-25 11:39:05.605 -0400,2020-05-25 10:03:58.294 -0400,2281,1.124595,0,0,1799.878,0,0,2020-05-25 11:39:03.060 -0400,612113955.8211869,0,0.4492188,101.2326,1,0.85
2020-05-25 11:39:17.807 -0400,1590421157.000398,35.93111615104259,-79.03160755546574,88.66673,0,295.0727113615819,2.146058746795882,5.650931771847998,-9999,7312.583532375001,-0.0096588134765625,-0.333587646484375,-0.94049072265625,7312.538661375001,-0.2407242245932052,-0.008703702267167461,0.3659812187160538,-0.06980867683887482,0.009641075506806374,0.02314323745667934,0.0004522930830717087,-0.01516750454902649,0.005894005298614502,XArbitraryZVertical,0.1801390338237738,-0.02609759376648558,-0.1188520463639139,0.976085498796329,-0.008127179928123951,-0.3578656911849976,-0.9337376952171326,7300.38201825,unknown,2,2020-05-25 11:39:05.605 -0400,2020-05-25 10:03:58.294 -0400,2281,1.124595,0,0,1799.878,0,0,2020-05-25 11:39:03.060 -0400,612113955.8211869,0,0.4492188,101.2326,1,0.85
2020-05-25 11:39:17.842 -0400,1590421157.000398,35.93111615104259,-79.03160755546574,88.66673,0,295.0727113615819,2.146058746795882,5.650931771847998,-9999,7312.618431375,-0.0141448974609375,-0.3511962890625,-0.9308319091796875,7312.598489375,-0.2399792326374902,-0.00950673911140325,0.3623744912397208,0.02162802219390869,0.008830409497022629,0.008115017786622047,-0.004934929311275482,0.02438533306121826,-0.004653811454772949,XArbitraryZVertical,0.1783401933191461,-0.02621167072132522,-0.1185914962503354,0.9764443671292515,-0.008889215998351574,-0.3544955253601074,-0.9350154399871826,7300.38201825,unknown,2,2020-05-25 11:39:05.605 -0400,2020-05-25 10:03:58.294 -0400,2281,1.124595,0,0,1799.878,0,0,2020-05-25 11:39:03.060 -0400,612113955.8211869,0,0.4492188,101.2326,1,0.85
2020-05-25 11:39:17.877 -0400,1590421157.000398,35.93111615104259,-79.03160755546574,88.66673,0,295.0727113615819,2.146058746795882,5.650931771847998,-9999,7312.653331375001,-0.0036773681640625,-0.37127685546875,-0.9307708740234375,7312.598489375,-0.2399792326374902,-0.00950673911140325,0.3623744912397208,0.02162802219390869,0.008830409497022629,0.008115017786622047,-0.004934929311275482,0.02438533306121826,-0.004653811454772949,XArbitraryZVertical,0.1783401933191461,-0.02621167072132522,-0.1185914962503354,0.9764443671292515,-0.008889215998351574,-0.3544955253601074,-0.9350154399871826,7300.38201825,unknown,2,2020-05-25 11:39:05.605 -0400,2020-05-25 10:03:58.294 -0400,2281,1.124595,0,0,1799.878,0,0,2020-05-25 11:39:03.060 -0400,612113955.8211869,0,0.4492188,101.2326,1,0.85
2020-05-25 11:39:17.912 -0400,1590421157.000398,35.93111615104259,-79.03160755546574,88.66673,0,295.0727113615819,2.146058746795882,5.650931771847998,-9999,7312.688230375001,-0.010772705078125,-0.347625732421875,-0.932342529296875,7312.658316375,-0.2400217748155646,-0.008157074819200898,0.363038557742881,-0.05909185856580734,0.003893706947565079,0.005340387113392353,0.00394822983071208,-0.01614674925804138,0.004017651081085205,XArbitraryZVertical,0.178743888747162,-0.02559537506316221,-0.1184860323195889,0.9763997884583572,-0.007625329308211803,-0.3551163673400879,-0.9347909688949585,7300.38201825,unknown,2,2020-05-25 11:39:05.605 -0400,2020-05-25 10:03:58.294 -0400,2281,1.124595,0,0,1799.878,0,0,2020-05-25 11:39:03.060 -0400,612113955.8211869,0,0.4492188,101.2326,1,0.85
2020-05-25 11:39:17.947 -0400,1590421157.000398,35.93111615104259,-79.03160755546574,88.66673,0,295.0727113615819,2.146058746795882,5.650931771847998,-9999,7312.723129375,-0.0169830322265625,-0.3586578369140625,-0.9266815185546875,7312.718144375001,-0.2396791284465729,-0.007834637512683955,0.3579312348721635,-0.1225528493523598,0.05978440493345261,0.008469135500490665,-0.01156734861433506,0.0004364252090454102,0.01186400651931763,XArbitraryZVertical,0.1762728954112641,-0.02510877303839238,-0.1183349041722634,0.9768797432195642,-0.007338031195104122,-0.3503373265266418,-0.9365948438644409,7300.38201825,unknown,2,2020-05-25 11:39:05.605 -0400,2020-05-25 10:03:58.294 -0400,2281,1.124595,0,0,1799.878,0,0,2020-05-25 11:39:03.060 -0400,612113955.8211869,0,0.4492188,101.2326,1,0.85
2020-05-25 11:39:17.982 -0400,1590421157.000398,35.93111615104259,-79.03160755546574,88.66673,0,295.0727113615819,2.146058746795882,5.650931771847998,-9999,7312.758029375001,-0.0124969482421875,-0.3533782958984375,-0.93402099609375,7312.718144375001,-0.2396791284465729,-0.007834637512683955,0.3579312348721635,-0.1225528493523598,0.05978440493345261,0.008469135500490665,-0.01156734861433506,0.0004364252090454102,0.01186400651931763,XArbitraryZVertical,0.1762728954112641,-0.02510877303839238,-0.1183349041722634,0.9768797432195642,-0.007338031195104122,-0.3503373265266418,-0.9365948438644409,7300.38201825,unknown,2,2020-05-25 11:39:05.605 -0400,2020-05-25 10:03:58.294 -0400,2281,1.124595,0,0,1799.878,0,0,2020-05-25 11:39:03.060 -0400,612113955.8211869,0,0.4492188,101.2326,1,0.85
2020-05-25 11:39:18.017 -0400,1590421157.000398,35.93111615104259,-79.03160755546574,88.66673,0,295.0727113615819,2.146058746795882,5.650931771847998,-9999,7312.792928375001,0.0152130126953125,-0.3627471923828125,-0.9304351806640625,7312.777971375001,-0.2402814277150138,-0.003811758872458902,0.3458019931350201,-0.3139396011829376,0.05800381302833557,0.02344147488474846,-0.003112387843430042,-0.01037019491195679,0.01611214876174927,XArbitraryZVertical,0.1705753896050962,-0.02248331545344223,-0.1183902154612177,0.9779479211723052,-0.003586109029129148,-0.3389512896537781,-0.9407970905303955,7300.38201825,unknown,2,2020-05-25 11:39:05.605 -0400,2020-05-25 10:03:58.294 -0400,2281,1.124595,0,0,1799.878,0,0,2020-05-25 11:39:03.060 -0400,612113955.8211869,0,0.4492188,101.2326,1,0.85
2020-05-25 11:39:18.052 -0400,1590421157.000398,35.93111615104259,-79.03160755546574,88.66673,0,295.0727113615819,2.146058746795882,5.650931771847998,-9999,7312.827828375001,0.01910400390625,-0.3297576904296875,-0.954437255859375,7312.777971375001,-0.2402814277150138,-0.003811758872458902,0.3458019931350201,-0.3139396011829376,0.05800381302833557,0.02344147488474846,-0.003112387843430042,-0.01037019491195679,0.01611214876174927,XArbitraryZVertical,0.1705753896050962,-0.02248331545344223,-0.1183902154612177,0.9779479211723052,-0.003586109029129148,-0.3389512896537781,-0.9407970905303955,7300.38201825,unknown,2,2020-05-25 11:39:05.605 -0400,2020-05-25 10:03:58.294 -0400,2281,1.124595,0,0,1799.878,0,0,2020-05-25 11:39:03.060 -0400,612113955.8211869,0,0.4492188,101.2326,1,0.85
2020-05-25 11:39:18.086 -0400,1590421157.000398,35.93111615104259,-79.03160755546574,88.66673,0,295.0727113615819,2.146058746795882,5.650931771847998,-9999,7312.862727375001,-0.0129241943359375,-0.22552490234375,-0.971435546875,7312.837799375,-0.2360620736898698,-0.007216207177842433,0.3197957122700424,-0.4978753328323364,-0.1285649985074997,0.08923580497503281,0.02464227005839348,0.003456443548202515,-0.01401436328887939,XArbitraryZVertical,0.1576891214271073,-0.02228615498962725,-0.1168247355267556,0.9803006249942986,-0.006850283592939377,-0.3143726289272308,-0.9492749571800232,7300.38201825,unknown,2,2020-05-25 11:39:05.605 -0400,2020-05-25 10:03:58.294 -0400,2281,1.124595,0,0,1799.878,0,0,2020-05-25 11:39:03.060 -0400,612113955.8211869,0,0.4492188,101.2326,1,0.85
2020-05-25 11:39:18.121 -0400,1590421157.000398,35.93111615104259,-79.03160755546574,88.66673,0,295.0727113615819,2.146058746795882,5.650931771847998,-9999,7312.897626375,-0.017486572265625,-0.2899322509765625,-0.96429443359375,7312.837799375,-0.2360620736898698,-0.007216207177842433,0.3197957122700424,-0.4978753328323364,-0.1285649985074997,0.08923580497503281,0.02464227005839348,0.003456443548202515,-0.01401436328887939,XArbitraryZVertical,0.1576891214271073,-0.02228615498962725,-0.1168247355267556,0.9803006249942986,-0.006850283592939377,-0.3143726289272308,-0.9492749571800232,7300.38201825,unknown,2,2020-05-25 11:39:05.605 -0400,2020-05-25 10:03:58.294 -0400,2281,1.124595,0,0,1799.878,0,0,2020-05-25 11:39:03.060 -0400,612113955.8211869,0,0.4492188,101.2326,1,0.85
2020-05-25 11:39:18.156 -0400,1590421157.000398,35.93111615104259,-79.03160755546574,88.66673,0,295.0727113615819,2.146058746795882,5.650931771847998,-9999,7312.932526375001,-0.0143890380859375,-0.29254150390625,-0.9582672119140625,7312.897626375,-0.2306539638299793,-0.01049399863552302,0.3137588334739066,0.06635554879903793,0.02205833047628403,0.06663928180932999,-0.01203657500445843,0.02742850780487061,-0.01297008991241455,XArbitraryZVertical,0.1546003601841454,-0.02312625823924721,-0.1144711419311041,0.9810506182421885,-0.00998149998486042,-0.3086361289024353,-0.951127827167511,7300.38201825,unknown,2,2020-05-25 11:39:05.605 -0400,2020-05-25 10:03:58.294 -0400,2281,1.124595,0,0,1799.878,0,0,2020-05-25 11:39:03.060 -0400,612113955.8211869,0,0.4492188,101.2326,1,0.85
2020-05-25 11:39:18.191 -0400,1590421157.000398,35.93111615104259,-79.03160755546574,88.66673,0,295.0727113615819,2.146058746795882,5.650931771847998,-9999,7312.967425375001,-0.0236968994140625,-0.2947998046875,-0.942626953125,7312.957454375,-0.2304633180037654,-0.00984031479602313,0.3192976047547205,0.2459578067064285,0.03036792576313019,-0.0266693439334631,-0.01430799253284931,0.03220409154891968,-0.005532562732696533,XArbitraryZVertical,0.1573567951525147,-0.02310316828579305,-0.1142902748603098,0.9806338818203603,-0.009342796169221401,-0.3138997554779053,-0.9494101405143738,7300.38201825,unknown,2,2020-05-25 11:39:05.605 -0400,2020-05-25 10:03:58.294 -0400,2281,1.124595,0,0,1799.878,0,0,2020-05-25 11:39:03.060 -0400,612113955.8211869,0,0.4492188,101.2326,1,0.85
2020-05-25 11:39:18.226 -0400,1590421157.000398,35.93111615104259,-79.03160755546574,88.66673,0,295.0727113615819,2.146058746795882,5.650931771847998,-9999,7313.002324375,-0.0058135986328125,-0.3399505615234375,-0.938323974609375,7312.957454375,-0.2304633180037654,-0.00984031479602313,0.3192976047547205,0.2459578067064285,0.03036792576313019,-0.0266693439334631,-0.01430799253284931,0.03220409154891968,-0.005532562732696533,XArbitraryZVertical,0.1573567951525147,-0.02310316828579305,-0.1142902748603098,0.9806338818203603,-0.009342796169221401,-0.3138997554779053,-0.9494101405143738,7300.38201825,unknown,2,2020-05-25 11:39:05.605 -0400,2020-05-25 10:03:58.294 -0400,2281,1.124595,0,0,1799.878,0,0,2020-05-25 11:39:03.060 -0400,612113955.8211869,0,0.4492188,101.2326,1,0.85
2020-05-25 11:39:18.261 -0400,1590421158.000403,35.93111615104259,-79.03160755546574,88.66673,0,295.0727113615819,1.970887142333283,6.121129426002034,-9999,7313.037224375001,-6.103515625e-05,-0.3506011962890625,-0.9323577880859375,7313.017281375,-0.233347643363745,-0.00587261606791036,0.3301894572372742,0.1025825291872025,0.05845415592193604,-0.0559488870203495,0.002244383096694946,-0.01641750335693359,0.01297909021377563,XArbitraryZVertical,0.1628905914153728,-0.02200798740612688,-0.1153052596914462,0.9796360273713121,-0.005555350799113512,-0.3242222666740417,-0.9459646344184875,7300.38201825,unknown,2,2020-05-25 11:39:05.605 -0400,2020-05-25 10:03:58.294 -0400,2281,1.124595,0,0,1799.878,0,0,2020-05-25 11:39:03.060 -0400,612113955.8211869,0,0.4492188,101.2326,1,0.85
2020-05-25 11:39:18.296 -0400,1590421158.000403,35.93111615104259,-79.03160755546574,88.66673,0,295.0727113615819,1.970887142333283,6.121129426002034,-9999,7313.072123375,0.0155029296875,-0.328277587890625,-0.941650390625,7313.017281375,-0.233347643363745,-0.00587261606791036,0.3301894572372742,0.1025825291872025,0.05845415592193604,-0.0559488870203495,0.002244383096694946,-0.01641750335693359,0.01297909021377563,XArbitraryZVertical,0.1628905914153728,-0.02200798740612688,-0.1153052596914462,0.9796360273713121,-0.005555350799113512,-0.3242222666740417,-0.9459646344184875,7300.38201825,unknown,2,2020-05-25 11:39:05.605 -0400,2020-05-25 10:03:58.294 -0400,2281,1.124595,0,0,1799.878,0,0,2020-05-25 11:39:03.060 -0400,612113955.8211869,0,0.4492188,101.2326,1,0.85
2020-05-25 11:39:18.331 -0400,1590421158.000403,35.93111615104259,-79.03160755546574,88.66673,0,295.0727113615819,1.970887142333283,6.121129426002034,-9999,7313.107023375001,-0.043365478515625,-0.2935333251953125,-1.013992309570312,7313.077109375001,-0.2313047395009037,-0.008222027095061665,0.3248917258746417,-0.1204966232180595,-0.07161170244216919,0.04693809896707535,0.02329501509666443,-0.009058892726898193,0.006000816822052002,XArbitraryZVertical,0.1601824481624001,-0.02269268656351128,-0.1145350036509311,0.9801572134071206,-0.007791806478053331,-0.319206178188324,-0.9476532340049744,7300.38201825,unknown,2,2020-05-25 11:39:05.605 -0400,2020-05-25 10:03:58.294 -0400,2281,1.124595,0,0,1799.878,0,0,2020-05-25 11:39:03.060 -0400,612113955.8211869,0,0.4492188,101.2326,1,0.85
2020-05-25 11:39:18.367 -0400,1590421158.000403,35.93111615104259,-79.03160755546574,88.66673,0,295.0727113615819,1.970887142333283,6.121129426002034,-9999,7313.141922375001,-0.032012939453125,-0.3371734619140625,-0.9339599609375,7313.136936375,-0.2262088500244355,-0.01286348369845256,0.3301941845661667,0.2112693339586258,0.05990957468748093,0.07991141080856323,-0.02011889033019543,0.01450133323669434,-0.02312564849853516,XArbitraryZVertical,0.1625785871112384,-0.02485221006780055,-0.1123767342501466,0.9799602590827748,-0.01216825470328331,-0.3242267370223999,-0.9459011554718018,7300.38201825,unknown,2,2020-05-25 11:39:05.605 -0400,2020-05-25 10:03:58.294 -0400,2281,1.124595,0,0,1799.878,0,0,2020-05-25 11:39:03.060 -0400,612113955.8211869,0,0.4492188,101.2326,1,0.85
2020-05-25 11:39:18.401 -0400,1590421158.000403,35.93111615104259,-79.03160755546574,88.66673,0,295.0727113615819,1.970887142333283,6.121129426002034,-9999,7313.176821375,0.010223388671875,-0.37005615234375,-0.9468536376953125,7313.136936375,-0.2262088500244355,-0.01286348369845256,0.3301941845661667,0.2112693339586258,0.05990957468748093,0.07991141080856323,-0.02011889033019543,0.01450133323669434,-0.02312564849853516,XArbitraryZVertical,0.1625785871112384,-0.02485221006780055,-0.1123767342501466,0.9799602590827748,-0.01216825470328331,-0.3242267370223999,-0.9459011554718018,7300.38201825,unknown,2,2020-05-25 11:39:05.605 -0400,2020-05-25 10:03:58.294 -0400,2281,1.124595,0,0,1799.878,0,0,2020-05-25 11:39:03.060 -0400,612113958.3737136,0,0.390625,101.2327,1,0.85
2020-05-25 11:39:18.436 -0400,1590421158.000403,35.93111615104259,-79.03160755546574,88.66673,0,295.0727113615819,1.970887142333283,6.121129426002034,-9999,7313.211721375001,-0.0264434814453125,-0.2976531982421875,-0.9263763427734375,7313.196764375,-0.2281966474307833,-0.01265336746713167,0.3317548169424788,-0.09603229165077209,-0.1284006834030151,-0.0530107170343399,0.02142398431897163,-0.003416508436203003,0.01466929912567139,XArbitraryZVertical,0.1633304436421343,-0.02499766011025422,-0.1133237856689817,0.9797224377152068,-0.01196308899670839,-0.3257026672363281,-0.9453965425491333,7300.38201825,unknown,2,2020-05-25 11:39:05.605 -0400,2020-05-25 10:03:58.294 -0400,2281,1.124595,0,0,1799.878,0,0,2020-05-25 11:39:03.060 -0400,612113958.3737136,0,0.390625,101.2327,1,0.85
2020-05-25 11:39:18.471 -0400,1590421158.000403,35.93111615104259,-79.03160755546574,88.66673,0,295.0727113615819,1.970887142333283,6.121129426002034,-9999,7313.246620375,-0.0133209228515625,-0.3307037353515625,-0.94989013671875,7313.196764375,-0.2281966474307833,-0.01265336746713167,0.3317548169424788,-0.09603229165077209,-0.1284006834030151,-0.0530107170343399,0.02142398431897163,-0.003416508436203003,0.01466929912567139,XArbitraryZVertical,0.1633304436421343,-0.02499766011025422,-0.1133237856689817,0.9797224377152068,-0.01196308899670839,-0.3257026672363281,-0.9453965425491333,7300.38201825,unknown,2,2020-05-25 11:39:05.605 -0400,2020-05-25 10:03:58.294 -0400,2281,1.124595,0,0,1799.878,0,0,2020-05-25 11:39:03.060 -0400,612113958.3737136,0,0.390625,101.2327,1,0.85
2020-05-25 11:39:18.505 -0400,1590421158.000403,35.93111615104259,-79.03160755546574,88.66673,0,295.0727113615819,1.970887142333283,6.121129426002034,-9999,7313.281519375,-0.016326904296875,-0.30859375,-0.9499969482421875,7313.256591375,-0.2280198817678777,-0.01447533975980772,0.3300468427287637,-0.04104654490947723,-0.01002983190119267,-0.0288364589214325,0.005667984485626221,-0.009639978408813477,-0.005673229694366455,XArbitraryZVertical,0.1623924850659275,-0.02578092833085351,-0.1133958909670105,0.9798496538770529,-0.01369358599185944,-0.3240873515605927,-0.9459280371665955,7300.38201825,unknown,2,2020-05-25 11:39:05.605 -0400,2020-05-25 10:03:58.294 -0400,2281,1.124595,0,0,1799.878,0,0,2020-05-25 11:39:03.060 -0400,612113958.3737136,0,0.390625,101.2327,1,0.85
2020-05-25 11:39:18.540 -0400,1590421158.000403,35.93111615104259,-79.03160755546574,88.66673,0,295.0727113615819,1.970887142333283,6.121129426002034,-9999,7313.31642,-0.01873779296875,-0.3141937255859375,-0.9445037841796875,7313.256591375,-0.2280198817678777,-0.01447533975980772,0.3300468427287637,-0.04104654490947723,-0.01002983190119267,-0.0288364589214325,0.005667984485626221,-0.009639978408813477,-0.005673229694366455,XArbitraryZVertical,0.1623924850659275,-0.02578092833085351,-0.1133958909670105,0.9798496538770529,-0.01369358599185944,-0.3240873515605927,-0.9459280371665955,7300.38201825,unknown,2,2020-05-25 11:39:05.605 -0400,2020-05-25 10:03:58.294 -0400,2281,1.124595,0,0,1799.878,0,0,2020-05-25 11:39:03.060 -0400,612113958.3737136,0,0.390625,101.2327,1,0.85
2020-05-25 11:39:18.575 -0400,1590421158.000403,35.93111615104259,-79.03160755546574,88.66673,0,295.0727113615819,1.970887142333283,6.121129426002034,-9999,7313.351319,-0.00640869140625,-0.336517333984375,-0.94091796875,7313.31642,-0.2295490917774993,-0.01441055832076473,0.3300851349144978,0.07605185359716415,0.01990622840821743,-0.04869836196303368,-0.007866984233260155,0.01528340578079224,0.001731038093566895,XArbitraryZVertical,0.1623951865072925,-0.02587549203439663,-0.1141395714049344,0.9797603616126541,-0.01363212894648314,-0.3241235613822937,-0.9459165334701538,7300.38201825,unknown,2,2020-05-25 11:39:05.605 -0400,2020-05-25 10:03:58.294 -0400,2281,1.124595,0,0,1799.878,0,0,2020-05-25 11:39:03.060 -0400,612113958.3737136,0,0.390625,101.2327,1,0.85
2020-05-25 11:39:18.610 -0400,1590421158.000403,35.93111615104259,-79.03160755546574,88.66673,0,295.0727113615819,1.970887142333283,6.121129426002034,-9999,7313.386219000001,-0.0068359375,-0.3308868408203125,-0.9466400146484375,7313.376247,-0.2313095627430154,-0.01359389991189957,0.3313714865221378,-0.04246281459927559,-0.02248277328908443,0.009504872374236584,0.007559644989669323,-0.0102485716342926,0.0002255439758300781,XArbitraryZVertical,0.16304952120015,-0.02569089259921672,-0.1149276995252445,0.9795644134113768,-0.01285395585000515,-0.325340211391449,-0.945509672164917,7300.38201825,unknown,2,2020-05-25 11:39:05.605 -0400,2020-05-25 10:03:58.294 -0400,2281,1.124595,0,0,1799.878,0,0,2020-05-25 11:39:03.060 -0400,612113958.3737136,0,0.390625,101.2327,1,0.85
2020-05-25 11:39:18.645 -0400,1590421158.000403,35.93111615104259,-79.03160755546574,88.66673,0,295.0727113615819,1.970887142333283,6.121129426002034,-9999,7313.421118,-0.01971435546875,-0.3030853271484375,-0.9467620849609375,7313.376247,-0.2313095627430154,-0.01359389991189957,0.3313714865221378,-0.04246281459927559,-0.02248277328908443,0.009504872374236584,0.007559644989669323,-0.0102485716342926,0.0002255439758300781,XArbitraryZVertical,0.16304952120015,-0.02569089259921672,-0.1149276995252445,0.9795644134113768,-0.01285395585000515,-0.325340211391449,-0.945509672164917,7300.38201825,unknown,2,2020-05-25 11:39:05.605 -0400,2020-05-25 10:03:58.294 -0400,2281,1.124595,0,0,1799.878,0,0,2020-05-25 11:39:03.060 -0400,612113958.3737136,0,0.390625,101.2327,1,0.85
2020-05-25 11:39:18.682 -0400,1590421158.000403,35.93111615104259,-79.03160755546574,88.66673,0,295.0727113615819,1.970887142333283,6.121129426002034,-9999,7313.456017,-0.019683837890625,-0.3187408447265625,-0.944671630859375,7313.436075000001,-0.2308417068282067,-0.0160666922664609,0.3299132098969019,0.02851442433893681,-0.003303752280771732,-0.0276897344738245,-0.01191471423953772,0.0249474048614502,0.0005726814270019531,XArbitraryZVertical,0.1621990878057066,-0.02678202643471989,-0.1149081406898079,0.9796786734080254,-0.01519956905394793,-0.323960930109024,-0.9459483623504639,7300.38201825,unknown,2,2020-05-25 11:39:05.605 -0400,2020-05-25 10:03:58.294 -0400,2281,1.124595,0,0,1799.878,0,0,2020-05-25 11:39:03.060 -0400,612113958.3737136,0,0.390625,101.2327,1,0.85
2020-05-25 11:39:18.717 -0400,1590421158.000403,35.93111615104259,-79.03160755546574,88.66673,0,295.0727113615819,1.970887142333283,6.121129426002034,-9999,7313.490917,-0.0091552734375,-0.3389892578125,-0.9422454833984375,7313.436075000001,-0.2308417068282067,-0.0160666922664609,0.3299132098969019,0.02851442433893681,-0.003303752280771732,-0.0276897344738245,-0.01191471423953772,0.0249474048614502,0.0005726814270019531,XArbitraryZVertical,0.1621990878057066,-0.02678202643471989,-0.1149081406898079,0.9796786734080254,-0.01519956905394793,-0.323960930109024,-0.9459483623504639,7300.38201825,unknown,2,2020-05-25 11:39:05.605 -0400,2020-05-25 10:03:58.294 -0400,2281,1.124595,0,0,1799.878,0,0,2020-05-25 11:39:03.060 -0400,612113958.3737136,0,0.390625,101.2327,1,0.85
2020-05-25 11:39:18.750 -0400,1590421158.000403,35.93111615104259,-79.03160755546574,88.66673,0,295.0727113615819,1.970887142333283,6.121129426002034,-9999,7313.525816,-0.013580322265625,-0.3215789794921875,-0.94012451171875,7313.495902000001,-0.2327165298547223,-0.01441092018009927,0.3325915578801056,0.0007762706372886896,-0.0108554121106863,-0.01778597012162209,0.004465969279408455,-0.01248249411582947,0.002853572368621826,XArbitraryZVertical,0.1635818236432215,-0.02627484520345152,-0.1156759794363625,0.9793720259805312,-0.01362072117626667,-0.3264936506748199,-0.945101261138916,7300.38201825,unknown,2,2020-05-25 11:39:05.605 -0400,2020-05-25 10:03:58.294 -0400,2281,1.124595,0,0,1799.878,0,0,2020-05-25 11:39:03.060 -0400,612113958.3737136,0,0.390625,101.2327,1,0.85
2020-05-25 11:39:18.785 -0400,1590421158.000403,35.93111615104259,-79.03160755546574,88.66673,0,295.0727113615819,1.970887142333283,6.121129426002034,-9999,7313.560715000001,-0.019989013671875,-0.3226165771484375,-0.943389892578125,7313.55573,-0.2327862966462982,-0.01583371463975308,0.3315753315195321,0.01458316296339035,0.007496431469917297,-0.003642221912741661,-0.007642308250069618,0.008605778217315674,0.001898050308227539,XArbitraryZVertical,0.1630007500530011,-0.02691972928014875,-0.1158322941844428,0.9794329409857413,-0.01497063785791397,-0.3255329430103302,-0.9454121589660645,7300.38201825,unknown,2,2020-05-25 11:39:05.605 -0400,2020-05-25 10:03:58.294 -0400,2281,1.124595,0,0,1799.878,0,0,2020-05-25 11:39:03.060 -0400,612113958.3737136,0,0.390625,101.2327,1,0.85
2020-05-25 11:39:18.820 -0400,1590421158.000403,35.93111615104259,-79.03160755546574,88.66673,0,295.0727113615819,1.970887142333283,6.121129426002034,-9999,7313.595615,-0.016876220703125,-0.337158203125,-0.9461212158203125,7313.55573,-0.2327862966462982,-0.01583371463975308,0.3315753315195321,0.01458316296339035,0.007496431469917297,-0.003642221912741661,-0.007642308250069618,0.008605778217315674,0.001898050308227539,XArbitraryZVertical,0.1630007500530011,-0.02691972928014875,-0.1158322941844428,0.9794329409857413,-0.01497063785791397,-0.3255329430103302,-0.9454121589660645,7300.38201825,unknown,2,2020-05-25 11:39:05.605 -0400,2020-05-25 10:03:58.294 -0400,2281,1.124595,0,0,1799.878,0,0,2020-05-25 11:39:03.060 -0400,612113958.3737136,0,0.390625,101.2327,1,0.85
2020-05-25 11:39:18.854 -0400,1590421158.000403,35.93111615104259,-79.03160755546574,88.66673,0,295.0727113615819,1.970887142333283,6.121129426002034,-9999,7313.630514,-0.0179443359375,-0.314239501953125,-0.9435882568359375,7313.615557,-0.2325427903604996,-0.01502586989892432,0.330853423404228,-0.04522770643234253,0.00721040740609169,0.006513409316539764,-0.003214575350284576,-0.00614553689956665,-2.217292785644531e-05,XArbitraryZVertical,0.162697098152339,-0.02646340427672787,-0.1156514398163836,0.9795172347091372,-0.01421041414141655,-0.3248502910137177,-0.9456586837768555,7300.38201825,unknown,2,2020-05-25 11:39:05.605 -0400,2020-05-25 10:03:58.294 -0400,2281,1.124595,0,0,1799.878,0,0,2020-05-25 11:39:03.060 -0400,612113958.3737136,0,0.390625,101.2327,1,0.85
2020-05-25 11:39:18.889 -0400,1590421158.000403,35.93111615104259,-79.03160755546574,88.66673,0,295.0727113615819,1.970887142333283,6.121129426002034,-9999,7313.665414,-0.0140533447265625,-0.3113555908203125,-0.9462738037109375,7313.615557,-0.2325427903604996,-0.01502586989892432,0.330853423404228,-0.04522770643234253,0.00721040740609169,0.006513409316539764,-0.003214575350284576,-0.00614553689956665,-2.217292785644531e-05,XArbitraryZVertical,0.162697098152339,-0.02646340427672787,-0.1156514398163836,0.9795172347091372,-0.01421041414141655,-0.3248502910137177,-0.9456586837768555,7300.38201825,unknown,2,2020-05-25 11:39:05.605 -0400,2020-05-25 10:03:58.294 -0400,2281,1.124595,0,0,1799.878,0,0,2020-05-25 11:39:03.060 -0400,612113958.3737136,0,0.390625,101.2327,1,0.85
2020-05-25 11:39:18.924 -0400,1590421158.000403,35.93111615104259,-79.03160755546574,88.66673,0,295.0727113615819,1.970887142333283,6.121129426002034,-9999,7313.700313,-0.0256500244140625,-0.33349609375,-0.9344482421875,7313.675385,-0.2327744095192847,-0.01397904023451942,0.3303755663300176,0.04068906605243683,0.04548376053571701,-0.008733953349292278,-0.003119020722806454,0.01023298501968384,0.00135272741317749,XArbitraryZVertical,0.1625205018891238,-0.02594246267163914,-0.1156826351527501,0.9795567900509424,-0.01322263106703758,-0.3243983089923859,-0.9458281397819519,7300.38201825,unknown,2,2020-05-25 11:39:05.605 -0400,2020-05-25 10:03:58.294 -0400,2281,1.124595,0,0,1799.878,0,0,2020-05-25 11:39:03.060 -0400,612113958.3737136,0,0.390625,101.2327,1,0.85
2020-05-25 11:39:18.959 -0400,1590421158.000403,35.93111615104259,-79.03160755546574,88.66673,0,295.0727113615819,1.970887142333283,6.121129426002034,-9999,7313.735212000001,-0.024169921875,-0.3343048095703125,-0.9483795166015625,7313.675385,-0.2327744095192847,-0.01397904023451942,0.3303755663300176,0.04068906605243683,0.04548376053571701,-0.008733953349292278,-0.003119020722806454,0.01023298501968384,0.00135272741317749,XArbitraryZVertical,0.1625205018891238,-0.02594246267163914,-0.1156826351527501,0.9795567900509424,-0.01322263106703758,-0.3243983089923859,-0.9458281397819519,7300.38201825,unknown,2,2020-05-25 11:39:05.605 -0400,2020-05-25 10:03:58.294 -0400,2281,1.124595,0,0,1799.878,0,0,2020-05-25 11:39:03.060 -0400,612113958.3737136,0,0.390625,101.2327,1,0.85
2020-05-25 11:39:18.994 -0400,1590421158.000403,35.93111615104259,-79.03160755546574,88.66673,0,295.0727113615819,1.970887142333283,6.121129426002034,-9999,7313.770112,-0.016815185546875,-0.350311279296875,-0.955078125,7313.735212000001,-0.2398096220577106,-0.008772618131205516,0.3293388902092951,-0.0363527238368988,0.07652423530817032,-0.2530063092708588,-0.01542606484144926,-0.01040107011795044,-0.007441282272338867,XArbitraryZVertical,0.1622301349477043,-0.02390419032378867,-0.1187123247723742,0.9792942472208741,-0.008301039226353168,-0.3234175145626068,-0.9462199211120605,7300.38201825,unknown,2,2020-05-25 11:39:05.605 -0400,2020-05-25 10:03:58.294 -0400,2281,1.124595,0,0,1799.878,0,0,2020-05-25 11:39:03.060 -0400,612113958.3737136,0,0.390625,101.2327,1,0.85
2020-05-25 11:39:19.029 -0400,1590421158.000403,35.93111615104259,-79.03160755546574,88.66673,0,295.0727113615819,1.970887142333283,6.121129426002034,-9999,7313.805011,0.0590057373046875,-0.3127288818359375,-0.995452880859375,7313.795040000001,-0.2459319401421721,0.001675347291549735,0.3292183333792599,-0.1162470206618309,0.1428222954273224,-0.06365173310041428,0.005021589808166027,-0.0083179771900177,0.005923211574554443,XArbitraryZVertical,0.1627307644909766,-0.01927917794230772,-0.1208620310977646,0.9790502722136342,0.00158537260722369,-0.3233034312725067,-0.9462940096855164,7300.38201825,unknown,2,2020-05-25 11:39:05.605 -0400,2020-05-25 10:03:58.294 -0400,2281,1.124595,0,0,1799.878,0,0,2020-05-25 11:39:03.060 -0400,612113958.3737136,0,0.390625,101.2327,1,0.85
2020-05-25 11:39:19.064 -0400,1590421158.000403,35.93111615104259,-79.03160755546574,88.66673,0,295.0727113615819,1.970887142333283,6.121129426002034,-9999,7313.839911,-0.0294189453125,-0.27435302734375,-0.95855712890625,7313.795040000001,-0.2459319401421721,0.001675347291549735,0.3292183333792599,-0.1162470206618309,0.1428222954273224,-0.06365173310041428,0.005021589808166027,-0.0083179771900177,0.005923211574554443,XArbitraryZVertical,0.1627307644909766,-0.01927917794230772,-0.1208620310977646,0.9790502722136342,0.00158537260722369,-0.3233034312725067,-0.9462940096855164,7300.38201825,unknown,2,2020-05-25 11:39:05.605 -0400,2020-05-25 10:03:58.294 -0400,2281,1.124595,0,0,1799.878,0,0,2020-05-25 11:39:03.060 -0400,612113958.3737136,0,0.390625,101.2327,1,0.85
2020-05-25 11:39:19.099 -0400,1590421158.000403,35.93111615104259,-79.03160755546574,88.66673,0,295.0727113615819,1.970887142333283,6.121129426002034,-9999,7313.87481,0.0607147216796875,-0.46173095703125,-0.9322967529296875,7313.854867,-0.2445845868127692,0.01482121923849039,0.3685873219459921,1.185489892959595,0.6020026803016663,-0.08683255314826965,-0.02783344686031342,0.04619526863098145,-0.01137495040893555,XArbitraryZVertical,0.1827673037248091,-0.01512325983533811,-0.1185708080583434,0.9758628366346137,0.01382527966052294,-0.3602980077266693,-0.9327347874641418,7300.38201825,unknown,2,2020-05-25 11:39:05.605 -0400,2020-05-25 10:03:58.294 -0400,2281,1.124595,0,0,1799.878,0,0,2020-05-25 11:39:03.060 -0400,612113958.3737136,0,0.390625,101.2327,1,0.85
2020-05-25 11:39:19.134 -0400,1590421158.000403,35.93111615104259,-79.03160755546574,88.66673,0,295.0727113615819,1.970887142333283,6.121129426002034,-9999,7313.909709,0.0352935791015625,-0.5077056884765625,-0.9979705810546875,7313.854867,-0.2445845868127692,0.01482121923849039,0.3685873219459921,1.185489892959595,0.6020026803016663,-0.08683255314826965,-0.02783344686031342,0.04619526863098145,-0.01137495040893555,XArbitraryZVertical,0.1827673037248091,-0.01512325983533811,-0.1185708080583434,0.9758628366346137,0.01382527966052294,-0.3602980077266693,-0.9327347874641418,7300.38201825,unknown,2,2020-05-25 11:39:05.605 -0400,2020-05-25 10:03:58.294 -0400,2281,1.124595,0,0,1799.878,0,0,2020-05-25 11:39:03.060 -0400,612113958.3737136,0,0.390625,101.2327,1,0.85
2020-05-25 11:39:19.185 -0400,1590421158.000403,35.93111615104259,-79.03160755546574,88.66673,0,295.0727113615819,1.970887142333283,6.121129426002034,-9999,7313.944609,0.0078887939453125,-0.3758697509765625,-1.012908935546875,7313.914695,-0.2436183245789674,0.03269534972934444,0.3717528844324789,-1.087136745452881,0.02280294895172119,0.04569977521896362,0.00483572855591774,-0.1444417238235474,-0.06677925586700439,XArbitraryZVertical,0.1853661718076743,-0.006506348337893309,-0.1164005292100659,0.9757294153531091,0.03045657090842724,-0.3632491230964661,-0.9311941266059875,7300.38201825,unknown,2,2020-05-25 11:39:05.605 -0400,2020-05-25 10:03:58.294 -0400,2281,1.124595,0,0,1799.878,0,0,2020-05-25 11:39:03.060 -0400,612113958.3737136,0,0.390625,101.2327,1,0.85
2020-05-25 11:39:19.204 -0400,1590421158.000403,35.93111615104259,-79.03160755546574,88.66673,0,295.0727113615819,1.970887142333283,6.121129426002034,-9999,7313.979508,0.0419158935546875,-0.2775115966796875,-0.9559326171875,7313.974522,-0.2472941040711708,0.04179368511443581,0.3262878968805196,-0.6005431413650513,0.2378787696361542,-0.1624273508787155,0.008104998618364334,0.03123533725738525,0.02110117673873901,XArbitraryZVertical,0.1636888545817172,0.0004330577701389497,-0.1183000653334614,0.9793930669960755,0.03957707062363625,-0.3205289840698242,-0.9464115500450134,7300.38201825,unknown,2,2020-05-25 11:39:05.605 -0400,2020-05-25 10:03:58.294 -0400,2281,1.124595,0,0,1799.878,0,0,2020-05-25 11:39:03.060 -0400,612113958.3737136,0,0.390625,101.2327,1,0.85
2020-05-25 11:39:19.241 -0400,1590421158.000403,35.93111615104259,-79.03160755546574,88.66673,0,295.0727113615819,1.970887142333283,6.121129426002034,-9999,7314.014407000001,0.025970458984375,-0.409210205078125,-1.180404663085938,7313.974522,-0.2472941040711708,0.04179368511443581,0.3262878968805196,-0.6005431413650513,0.2378787696361542,-0.1624273508787155,0.008104998618364334,0.03123533725738525,0.02110117673873901,XArbitraryZVertical,0.1636888545817172,0.0004330577701389497,-0.1183000653334614,0.9793930669960755,0.03957707062363625,-0.3205289840698242,-0.9464115500450134,7300.38201825,unknown,2,2020-05-25 11:39:05.605 -0400,2020-05-25 10:03:58.294 -0400,2281,1.124595,0,0,1799.878,0,0,2020-05-25 11:39:03.060 -0400,612113958.3737136,0,0.390625,101.2327,1,0.85
2020-05-25 11:39:19.273 -0400,1590421159.000411,35.93111615104259,-79.03160755546574,88.66673,0,295.0727113615819,1.796398602873885,6.524326164399803,-9999,7314.049307,0.05731201171875,-0.3074493408203125,-1.132110595703125,7314.034350000001,-0.2411642026294511,0.04378511513627836,0.2857694702589891,-0.3791313767433167,-0.0698968917131424,-0.1165927201509476,0.005869083106517792,-0.06877025961875916,-0.2069424986839294,XArbitraryZVertical,0.1439375879706672,0.004385302316939357,-0.1159411386591236,0.9827616155204539,0.04199599102139473,-0.281895786523819,-0.9585254788398743,7300.38201825,unknown,2,2020-05-25 11:39:05.605 -0400,2020-05-25 10:03:58.294 -0400,2281,1.124595,0,0,1799.878,0,0,2020-05-25 11:39:03.060 -0400,612113958.3737136,0,0.390625,101.2327,1,0.85
2020-05-25 11:39:19.308 -0400,1590421159.000411,35.93111615104259,-79.03160755546574,88.66673,0,295.0727113615819,1.796398602873885,6.524326164399803,-9999,7314.084206,-0.025970458984375,-0.320220947265625,-1.03302001953125,7314.034350000001,-0.2411642026294511,0.04378511513627836,0.2857694702589891,-0.3791313767433167,-0.0698968917131424,-0.1165927201509476,0.005869083106517792,-0.06877025961875916,-0.2069424986839294,XArbitraryZVertical,0.1439375879706672,0.004385302316939357,-0.1159411386591236,0.9827616155204539,0.04199599102139473,-0.281895786523819,-0.9585254788398743,7300.38201825,unknown,2,2020-05-25 11:39:05.605 -0400,2020-05-25 10:03:58.294 -0400,2281,1.124595,0,0,1799.878,0,0,2020-05-25 11:39:03.060 -0400,612113958.3737136,0,0.390625,101.2327,1,0.85
2020-05-25 11:39:19.343 -0400,1590421159.000411,35.93111615104259,-79.03160755546574,88.66673,0,295.0727113615819,1.796398602873885,6.524326164399803,-9999,7314.119106,0.058502197265625,-0.4477081298828125,-0.9972991943359375,7314.094177000001,-0.2437365288826381,0.04546381434260263,0.3043836440847539,0.6142412424087524,0.1854661703109741,-0.05509624257683754,-0.06699664890766144,-0.03646436333656311,-0.06999659538269043,XArbitraryZVertical,0.1531729567776572,0.003875208808630456,-0.116710195066556,0.981275572630845,0.04335898533463478,-0.2997052073478699,-0.9530460834503174,7300.38201825,unknown,2,2020-05-25 11:39:05.605 -0400,2020-05-25 10:03:58.294 -0400,2281,1.124595,0,0,1799.878,0,0,2020-05-25 11:39:03.060 -0400,612113958.3737136,0,0.390625,101.2327,1,0.85
2020-05-25 11:39:19.378 -0400,1590421159.000411,35.93111615104259,-79.03160755546574,88.66673,0,295.0727113615819,1.796398602873885,6.524326164399803,-9999,7314.154005,0.0472412109375,-0.3701171875,-1.029953002929688,7314.094177000001,-0.2437365288826381,0.04546381434260263,0.3043836440847539,0.6142412424087524,0.1854661703109741,-0.05509624257683754,-0.06699664890766144,-0.03646436333656311,-0.06999659538269043,XArbitraryZVertical,0.1531729567776572,0.003875208808630456,-0.116710195066556,0.981275572630845,0.04335898533463478,-0.2997052073478699,-0.9530460834503174,7300.38201825,unknown,2,2020-05-25 11:39:05.605 -0400,2020-05-25 10:03:58.294 -0400,2281,1.124595,0,0,1799.878,0,0,2020-05-25 11:39:03.060 -0400,612113958.3737136,0,0.390625,101.2327,1,0.85
2020-05-25 11:39:19.413 -0400,1590421159.000411,35.93111615104259,-79.03160755546574,88.66673,0,295.0727113615819,1.796398602873885,6.524326164399803,-9999,7314.188904000001,-0.0064239501953125,-0.339447021484375,-1.018203735351562,7314.154005,-0.2448399574140459,0.04857213113627744,0.3196273893816658,0.2070210576057434,-0.03098304942250252,0.07162956148386002,0.01977632567286491,-0.07241684198379517,-0.0833548903465271,XArbitraryZVertical,0.1608243625257937,0.004367942674306135,-0.1166873346287474,0.9800511745153589,0.04609394818544388,-0.314212828874588,-0.948232889175415,7300.38201825,unknown,2,2020-05-25 11:39:05.605 -0400,2020-05-25 10:03:58.294 -0400,2281,1.124595,0,0,1799.878,0,0,2020-05-25 11:39:03.060 -0400,612113958.3737136,0,0.390625,101.2327,1,0.85
2020-05-25 11:39:19.448 -0400,1590421159.000411,35.93111615104259,-79.03160755546574,88.66673,0,295.0727113615819,1.796398602873885,6.524326164399803,-9999,7314.223804,0.09490966796875,-0.4037628173828125,-1.007049560546875,7314.213832,-0.2480273998601979,0.05898080681862099,0.3619596700425408,1.186382532119751,0.1807278692722321,0.1054279878735542,0.01171931996941566,-0.03500768542289734,-0.07670861482620239,XArbitraryZVertical,0.182121274312157,0.006526994995451289,-0.1163563914591345,0.9763453532866415,0.05512715131044388,-0.3541076183319092,-0.9335784912109375,7300.38201825,unknown,2,2020-05-25 11:39:05.605 -0400,2020-05-25 10:03:58.294 -0400,2281,1.124595,0,0,1799.878,0,0,2020-05-25 11:39:03.060 -0400,612113958.3737136,0,0.390625,101.2327,1,0.85
2020-05-25 11:39:19.483 -0400,1590421159.000411,35.93111615104259,-79.03160755546574,88.66673,0,295.0727113615819,1.796398602873885,6.524326164399803,-9999,7314.258703,0.04168701171875,-0.379608154296875,-0.9780731201171875,7314.213832,-0.2480273998601979,0.05898080681862099,0.3619596700425408,1.186382532119751,0.1807278692722321,0.1054279878735542,0.01171931996941566,-0.03500768542289734,-0.07670861482620239,XArbitraryZVertical,0.182121274312157,0.006526994995451289,-0.1163563914591345,0.9763453532866415,0.05512715131044388,-0.3541076183319092,-0.9335784912109375,7300.38201825,unknown,2,2020-05-25 11:39:05.605 -0400,2020-05-25 10:03:58.294 -0400,2281,1.124595,0,0,1799.878,0,0,2020-05-25 11:39:03.060 -0400,612113958.3737136,0,0.390625,101.2327,1,0.85
2020-05-25 11:39:19.518 -0400,1590421159.000411,35.93111615104259,-79.03160755546574,88.66673,0,295.0727113615819,1.796398602873885,6.524326164399803,-9999,7314.293603,0.1236572265625,-0.3979644775390625,-0.983001708984375,7314.273660000001,-0.2474912277406584,0.06756057217562444,0.4406512326239138,1.058471441268921,0.1600867658853531,0.05312851443886757,-0.006451621651649475,0.05305644869804382,-0.05865281820297241,XArbitraryZVertical,0.2208204156671816,0.005745486289736621,-0.1130528186309251,0.9687230776397546,0.06106030941009521,-0.4265285730361938,-0.9024106860160828,7300.38201825,unknown,2,2020-05-25 11:39:05.605 -0400,2020-05-25 10:03:58.294 -0400,2281,1.124595,0,0,1799.878,0,0,2020-05-25 11:39:03.060 -0400,612113958.3737136,0,0.390625,101.2327,1,0.85
2020-05-25 11:39:19.553 -0400,1590421159.000411,35.93111615104259,-79.03160755546574,88.66673,0,295.0727113615819,1.796398602873885,6.524326164399803,-9999,7314.328502,0.062774658203125,-0.355010986328125,-0.96197509765625,7314.273660000001,-0.2474912277406584,0.06756057217562444,0.4406512326239138,1.058471441268921,0.1600867658853531,0.05312851443886757,-0.006451621651649475,0.05305644869804382,-0.05865281820297241,XArbitraryZVertical,0.2208204156671816,0.005745486289736621,-0.1130528186309251,0.9687230776397546,0.06106030941009521,-0.4265285730361938,-0.9024106860160828,7300.38201825,unknown,2,2020-05-25 11:39:05.605 -0400,2020-05-25 10:03:58.294 -0400,2281,1.124595,0,0,1799.878,0,0,2020-05-25 11:39:03.060 -0400,612113958.3737136,0,0.390625,101.2327,1,0.85
2020-05-25 11:39:19.588 -0400,1590421159.000411,35.93111615104259,-79.03160755546574,88.66673,0,295.0727113615819,1.796398602873885,6.524326164399803,-9999,7314.363401000001,0.0318603515625,-0.3438568115234375,-0.869171142578125,7314.333487000001,-0.2442325333041429,0.06032234109765201,0.488722651405671,0.9492248296737671,-0.2281797379255295,-0.04162459075450897,0.009544149041175842,0.1145064532756805,-0.08065247535705566,XArbitraryZVertical,0.2435901026247593,-0.0004148195305948357,-0.110898758675366,0.9635170864904034,0.05322830751538277,-0.4694984555244446,-0.8813273906707764,7300.38201825,unknown,2,2020-05-25 11:39:05.605 -0400,2020-05-25 10:03:58.294 -0400,2281,1.124595,0,0,1799.878,0,0,2020-05-25 11:39:03.060 -0400,612113958.3737136,0,0.390625,101.2327,1,0.85
2020-05-25 11:39:19.622 -0400,1590421159.000411,35.93111615104259,-79.03160755546574,88.66673,0,295.0727113615819,1.796398602873885,6.524326164399803,-9999,7314.398301,0.08795166015625,-0.4779815673828125,-0.8093109130859375,7314.393315,-0.251299257835666,0.05524049633919317,0.5704369378698045,1.417365908622742,-0.1611921787261963,-0.03072820045053959,0.02370288595557213,0.08358567953109741,0.00526130199432373,XArbitraryZVertical,0.2823635638274639,-0.008955169267977115,-0.1125013487848029,0.9526457859756605,0.04647035524249077,-0.5399998426437378,-0.8403812646865845,7300.38201825,unknown,2,2020-05-25 11:39:05.605 -0400,2020-05-25 10:03:58.294 -0400,2281,1.124595,0,0,1799.878,0,0,2020-05-25 11:39:03.060 -0400,612113958.3737136,0,0.390625,101.2327,1,0.85
2020-05-25 11:39:19.657 -0400,1590421159.000411,35.93111615104259,-79.03160755546574,88.66673,0,295.0727113615819,1.796398602873885,6.524326164399803,-9999,7314.4332,0.0712432861328125,-0.4813232421875,-0.739288330078125,7314.393315,-0.251299257835666,0.05524049633919317,0.5704369378698045,1.417365908622742,-0.1611921787261963,-0.03072820045053959,0.02370288595557213,0.08358567953109741,0.00526130199432373,XArbitraryZVertical,0.2823635638274639,-0.008955169267977115,-0.1125013487848029,0.9526457859756605,0.04647035524249077,-0.5399998426437378,-0.8403812646865845,7300.38201825,unknown,2,2020-05-25 11:39:05.605 -0400,2020-05-25 10:03:58.294 -0400,2281,1.124595,0,0,1799.878,0,0,2020-05-25 11:39:03.060 -0400,612113958.3737136,0,0.390625,101.2327,1,0.85
2020-05-25 11:39:19.692 -0400,1590421159.000411,35.93111615104259,-79.03160755546574,88.66673,0,295.0727113615819,1.796398602873885,6.524326164399803,-9999,7314.468099000001,0.048248291015625,-0.5018310546875,-0.69769287109375,7314.453143000001,-0.2564908066837676,0.04311664281628051,0.6249527389926808,0.6230352520942688,-0.1955970376729965,-0.09551203995943069,0.009903028607368469,0.0962519645690918,0.08664238452911377,XArbitraryZVertical,0.3074440896249834,-0.01896325573993259,-0.1151001865921296,0.9443889416012428,0.03495636582374573,-0.5850589275360107,-0.8102370500564575,7300.38201825,unknown,2,2020-05-25 11:39:05.605 -0400,2020-05-25 10:03:58.294 -0400,2281,1.124595,0,0,1799.878,0,0,2020-05-25 11:39:03.060 -0400,612113958.3737136,0,0.390625,101.2327,1,0.85
2020-05-25 11:39:19.727 -0400,1590421159.000411,35.93111615104259,-79.03160755546574,88.66673,0,295.0727113615819,1.796398602873885,6.524326164399803,-9999,7314.502999,0.0681304931640625,-0.4898529052734375,-0.6782989501953125,7314.453143000001,-0.2564908066837676,0.04311664281628051,0.6249527389926808,0.6230352520942688,-0.1955970376729965,-0.09551203995943069,0.009903028607368469,0.0962519645690918,0.08664238452911377,XArbitraryZVertical,0.3074440896249834,-0.01896325573993259,-0.1151001865921296,0.9443889416012428,0.03495636582374573,-0.5850589275360107,-0.8102370500564575,7300.38201825,unknown,2,2020-05-25 11:39:05.605 -0400,2020-05-25 10:03:58.294 -0400,2281,1.124595,0,0,1799.878,0,0,2020-05-25 11:39:03.060 -0400,612113958.3737136,0,0.390625,101.2327,1,0.85
2020-05-25 11:39:19.762 -0400,1590421159.000411,35.93111615104259,-79.03160755546574,88.66673,0,295.0727113615819,1.796398602873885,6.524326164399803,-9999,7314.537898,0.0419921875,-0.537841796875,-0.676971435546875,7314.512970000001,-0.2638865089005048,0.03928672204878063,0.6552778934992972,0.5932861566543579,-0.1123282387852669,-0.04115860536694527,0.03126556426286697,0.1190630793571472,0.1106941103935242,XArbitraryZVertical,0.3213964787274072,-0.02389361370173042,-0.1182722719665024,0.9392257517939308,0.03114158846437931,-0.6093795895576477,-0.7922667860984802,7300.38201825,unknown,2,2020-05-25 11:39:05.605 -0400,2020-05-25 10:03:58.294 -0400,2281,1.124595,0,0,1799.878,0,0,2020-05-25 11:39:03.060 -0400,612113958.3737136,0,0.390625,101.2327,1,0.85
2020-05-25 11:39:19.797 -0400,1590421159.000411,35.93111615104259,-79.03160755546574,88.66673,0,295.0727113615819,1.796398602873885,6.524326164399803,-9999,7314.572798,0.06591796875,-0.560882568359375,-0.618743896484375,7314.512970000001,-0.2638865089005048,0.03928672204878063,0.6552778934992972,0.5932861566543579,-0.1123282387852669,-0.04115860536694527,0.03126556426286697,0.1190630793571472,0.1106941103935242,XArbitraryZVertical,0.3213964787274072,-0.02389361370173042,-0.1182722719665024,0.9392257517939308,0.03114158846437931,-0.6093795895576477,-0.7922667860984802,7300.38201825,unknown,2,2020-05-25 11:39:05.605 -0400,2020-05-25 10:03:58.294 -0400,2281,1.124595,0,0,1799.878,0,0,2020-05-25 11:39:03.060 -0400,612113958.3737136,0,0.390625,101.2327,1,0.85
2020-05-25 11:39:19.831 -0400,1590421159.000411,35.93111615104259,-79.03160755546574,88.66673,0,295.0727113615819,1.796398602873885,6.524326164399803,-9999,7314.607697,0.042236328125,-0.5532379150390625,-0.587921142578125,7314.572798,-0.2692868028194383,0.04241686014275411,0.6961457833417558,0.5583710670471191,-0.02377307415008545,0.02111846767365932,0.03194476291537285,0.08581018447875977,0.1472045183181763,XArbitraryZVertical,0.340599851425739,-0.02602150042952554,-0.1189907177083029,0.9322852101053329,0.03253751993179321,-0.6412650346755981,-0.7666292190551758,7300.38201825,unknown,2,2020-05-25 11:39:05.605 -0400,2020-05-25 10:03:58.294 -0400,2281,1.124595,0,0,1799.878,0,0,2020-05-25 11:39:03.060 -0400,612113958.3737136,0,0.390625,101.2327,1,0.85
2020-05-25 11:39:19.866 -0400,1590421159.000411,35.93111615104259,-79.03160755546574,88.66673,0,295.0727113615819,1.796398602873885,6.524326164399803,-9999,7314.642596000001,0.0370635986328125,-0.54791259765625,-0.5799407958984375,7314.632625,-0.2663659617404567,0.03854718013962452,0.7167946696239443,0.1356944143772125,-0.02384338155388832,0.05282216891646385,0.01127365976572037,0.1132967472076416,0.1746864318847656,XArbitraryZVertical,0.3499994584424881,-0.02868245698477782,-0.1176286906849461,0.9288924991857977,0.02905411832034588,-0.6569715142250061,-0.7533553838729858,7300.38201825,unknown,2,2020-05-25 11:39:05.605 -0400,2020-05-25 10:03:58.294 -0400,2281,1.124595,0,0,1799.878,0,0,2020-05-25 11:39:03.060 -0400,612113958.3737136,0,0.390625,101.2327,1,0.85
2020-05-25 11:39:19.901 -0400,1590421159.000411,35.93111615104259,-79.03160755546574,88.66673,0,295.0727113615819,1.796398602873885,6.524326164399803,-9999,7314.677496,0.0225067138671875,-0.5528564453125,-0.571807861328125,7314.632625,-0.2663659617404567,0.03854718013962452,0.7167946696239443,0.1356944143772125,-0.02384338155388832,0.05282216891646385,0.01127365976572037,0.1132967472076416,0.1746864318847656,XArbitraryZVertical,0.3499994584424881,-0.02868245698477782,-0.1176286906849461,0.9288924991857977,0.02905411832034588,-0.6569715142250061,-0.7533553838729858,7300.38201825,unknown,2,2020-05-25 11:39:05.605 -0400,2020-05-25 10:03:58.294 -0400,2281,1.124595,0,0,1799.878,0,0,2020-05-25 11:39:03.060 -0400,612113958.3737136,0,0.390625,101.2327,1,0.85
2020-05-25 11:39:19.936 -0400,1590421159.000411,35.93111615104259,-79.03160755546574,88.66673,0,295.0727113615819,1.796398602873885,6.524326164399803,-9999,7314.712395,0.0183563232421875,-0.5471649169921875,-0.576324462890625,7314.692453000001,-0.2605347109753524,0.03496883938381441,0.7189781738695347,0.03399201482534409,0.03803543373942375,0.1147302538156509,-0.0007353313267230988,0.1026279330253601,0.1879830360412598,XArbitraryZVertical,0.3508879771510719,-0.02946380746517765,-0.1154785515463489,0.9288024668141283,0.0263079572468996,-0.6586161255836487,-0.7520190477371216,7300.38201825,unknown,2,2020-05-25 11:39:05.605 -0400,2020-05-25 10:03:58.294 -0400,2281,1.124595,0,0,1799.878,0,0,2020-05-25 11:39:03.060 -0400,612113958.3737136,0,0.390625,101.2327,1,0.85
2020-05-25 11:39:19.971 -0400,1590421159.000411,35.93111615104259,-79.03160755546574,88.66673,0,295.0727113615819,1.796398602873885,6.524326164399803,-9999,7314.747295,-0.003875732421875,-0.5897064208984375,-0.62091064453125,7314.692453000001,-0.2605347109753524,0.03496883938381441,0.7189781738695347,0.03399201482534409,0.03803543373942375,0.1147302538156509,-0.0007353313267230988,0.1026279330253601,0.1879830360412598,XArbitraryZVertical,0.3508879771510719,-0.02946380746517765,-0.1154785515463489,0.9288024668141283,0.0263079572468996,-0.6586161255836487,-0.7520190477371216,7300.38201825,unknown,2,2020-05-25 11:39:05.605 -0400,2020-05-25 10:03:58.294 -0400,2281,1.124595,0,0,1799.878,0,0,2020-05-25 11:39:03.060 -0400,612113958.3737136,0,0.390625,101.2327,1,0.85
2020-05-25 11:39:20.006 -0400,1590421159.000411,35.93111615104259,-79.03160755546574,88.66673,0,295.0727113615819,1.796398602873885,6.524326164399803,-9999,7314.782194,0.022857666015625,-0.577056884765625,-0.6670684814453125,7314.752280000001,-0.252461686897439,0.03479290776213244,0.7148793713028683,-0.3687812685966492,0.1481771171092987,0.09128968417644501,-0.03014617040753365,0.06584650278091431,0.1337947249412537,XArbitraryZVertical,0.3490921997744721,-0.02787496188582482,-0.1118829935079739,0.9299675817355377,0.0262693390250206,-0.655526340007782,-0.7547152638435364,7300.38201825,unknown,2,2020-05-25 11:39:05.605 -0400,2020-05-25 10:03:58.294 -0400,2281,1.124595,0,0,1799.878,0,0,2020-05-25 11:39:03.060 -0400,612113958.3737136,0,0.390625,101.2327,1,0.85
2020-05-25 11:39:20.040 -0400,1590421159.000411,35.93111615104259,-79.03160755546574,88.66673,0,295.0727113615819,1.796398602873885,6.524326164399803,-9999,7314.817093000001,0.02215576171875,-0.5327911376953125,-0.73736572265625,7314.812108,-0.2495396975052048,0.0473006500902288,0.6988206199444493,0.06911751627922058,0.4849863052368164,-0.107648178935051,-0.02312466874718666,0.1235658526420593,0.0636858344078064,XArbitraryZVertical,0.3423526331149507,-0.0205450755390286,-0.1088611156242943,0.9330176232210969,0.03619994223117828,-0.6433151960372925,-0.7647451758384705,7300.38201825,unknown,2,2020-05-25 11:39:05.605 -0400,2020-05-25 10:03:58.294 -0400,2281,1.124595,0,0,1799.878,0,0,2020-05-25 11:39:03.060 -0400,612113958.3737136,0,0.390625,101.2327,1,0.85
2020-05-25 11:39:20.075 -0400,1590421159.000411,35.93111615104259,-79.03160755546574,88.66673,0,295.0727113615819,1.796398602873885,6.524326164399803,-9999,7314.851993,0.1279144287109375,-0.68231201171875,-0.8110809326171875,7314.812108,-0.2495396975052048,0.0473006500902288,0.6988206199444493,0.06911751627922058,0.4849863052368164,-0.107648178935051,-0.02312466874718666,0.1235658526420593,0.0636858344078064,XArbitraryZVertical,0.3423526331149507,-0.0205450755390286,-0.1088611156242943,0.9330176232210969,0.03619994223117828,-0.6433151960372925,-0.7647451758384705,7300.38201825,unknown,2,2020-05-25 11:39:05.605 -0400,2020-05-25 10:03:58.294 -0400,2281,1.124595,0,0,1799.878,0,0,2020-05-25 11:39:03.060 -0400,612113958.3737136,0,0.390625,101.2327,1,0.85
2020-05-25 11:39:20.110 -0400,1590421159.000411,35.93111615104259,-79.03160755546574,88.66673,0,295.0727113615819,1.796398602873885,6.524326164399803,-9999,7314.886892,0.0855865478515625,-0.68450927734375,-0.79876708984375,7314.871935,-0.2586249217402759,0.08251807833998952,0.7024779626630236,-0.2772044837474823,0.3123245239257812,-0.153704822063446,0.07136483490467072,-0.04867196083068848,-0.04656839370727539,XArbitraryZVertical,0.345892621786117,-0.005924071112994284,-0.1069032970470466,0.9321452840480579,0.06290993094444275,-0.6461109519004822,-0.7606464028358459,7300.38201825,unknown,2,2020-05-25 11:39:05.605 -0400,2020-05-25 10:03:58.294 -0400,2281,1.124595,0,0,1799.878,0,0,2020-05-25 11:39:03.060 -0400,612113958.3737136,0,0.390625,101.2327,1,0.85
2020-05-25 11:39:20.145 -0400,1590421159.000411,35.93111615104259,-79.03160755546574,88.66673,0,295.0727113615819,1.796398602873885,6.524326164399803,-9999,7314.921791000001,0.06170654296875,-0.613037109375,-0.7890777587890625,7314.871935,-0.2586249217402759,0.08251807833998952,0.7024779626630236,-0.2772044837474823,0.3123245239257812,-0.153704822063446,0.07136483490467072,-0.04867196083068848,-0.04656839370727539,XArbitraryZVertical,0.345892621786117,-0.005924071112994284,-0.1069032970470466,0.9321452840480579,0.06290993094444275,-0.6461109519004822,-0.7606464028358459,7300.38201825,unknown,2,2020-05-25 11:39:05.605 -0400,2020-05-25 10:03:58.294 -0400,2281,1.124595,0,0,1799.878,0,0,2020-05-25 11:39:03.060 -0400,612113958.3737136,0,0.390625,101.2327,1,0.85
2020-05-25 11:39:20.180 -0400,1590421159.000411,35.93111615104259,-79.03160755546574,88.66673,0,295.0727113615819,1.796398602873885,6.524326164399803,-9999,7314.956691,0.0990753173828125,-0.5838623046875,-0.813446044921875,7314.931763000001,-0.2637755179404829,0.1011831288840122,0.6694207793910834,-0.5830336809158325,0.2391208708286285,-0.06737241148948669,-0.01114438474178314,0.01411169767379761,-0.01328027248382568,XArbitraryZVertical,0.3315073580463365,0.004205024241484646,-0.1075812254897725,0.9372893624662821,0.07921058684587479,-0.6205318570137024,-0.7801703810691833,7300.38201825,unknown,2,2020-05-25 11:39:05.605 -0400,2020-05-25 10:03:58.294 -0400,2281,1.124595,0,0,1799.878,0,0,2020-05-25 11:39:03.060 -0400,612113958.3737136,0,0.390625,101.2327,1,0.85
2020-05-25 11:39:20.215 -0400,1590421159.000411,35.93111615104259,-79.03160755546574,88.66673,0,295.0727113615819,1.796398602873885,6.524326164399803,-9999,7314.991590000001,0.0598907470703125,-0.5756072998046875,-0.8089599609375,7314.931763000001,-0.2637755179404829,0.1011831288840122,0.6694207793910834,-0.5830336809158325,0.2391208708286285,-0.06737241148948669,-0.01114438474178314,0.01411169767379761,-0.01328027248382568,XArbitraryZVertical,0.3315073580463365,0.004205024241484646,-0.1075812254897725,0.9372893624662821,0.07921058684587479,-0.6205318570137024,-0.7801703810691833,7300.38201825,unknown,2,2020-05-25 11:39:05.605 -0400,2020-05-25 10:03:58.294 -0400,2281,1.124595,0,0,1799.878,0,0,2020-05-25 11:39:03.060 -0400,612113958.3737136,0,0.390625,101.2327,1,0.85
2020-05-25 11:39:20.250 -0400,1590421159.000411,35.93111615104259,-79.03160755546574,88.66673,0,295.0727113615819,1.796398602873885,6.524326164399803,-9999,7315.02649,0.09503173828125,-0.5761566162109375,-0.81402587890625,7314.991590000001,-0.2637387610588465,0.1127026187289648,0.6390053523451819,-0.5793066024780273,0.1360669285058975,-0.004637545440346003,-0.02405434101819992,0.02147012948989868,-0.003543376922607422,XArbitraryZVertical,0.3179039884726222,0.01177296399280919,-0.107098343488803,0.9419810619241589,0.09027379751205444,-0.596397340297699,-0.7975969314575195,7300.38201825,unknown,2,2020-05-25 11:39:05.605 -0400,2020-05-25 10:03:58.294 -0400,2281,1.124595,0,0,1799.878,0,0,2020-05-25 11:39:03.060 -0400,612113958.3737136,0,0.390625,101.2327,1,0.85
2020-05-25 11:39:20.285 -0400,1590421160.000417,35.93111615104259,-79.03160755546574,88.66673,0,295.0727113615819,1.781911133731471,6.931387363449477,-9999,7315.061389,0.078521728515625,-0.56378173828125,-0.842864990234375,7315.051418,-0.2564288061644955,0.1133731184573672,0.6097910912395115,-0.3241099417209625,0.04711255058646202,0.05990516394376755,0.01200715452432632,0.0225483775138855,-0.01641988754272461,XArbitraryZVertical,0.3041613952271277,0.01527741341659284,-0.1049019994718601,0.9467037688128767,0.09274064749479294,-0.5726962089538574,-0.8145049214363098,7300.38201825,unknown,2,2020-05-25 11:39:05.605 -0400,2020-05-25 10:03:58.294 -0400,2281,1.124595,0,0,1799.878,0,0,2020-05-25 11:39:03.060 -0400,612113958.3737136,0,0.390625,101.2327,1,0.85
2020-05-25 11:39:20.320 -0400,1590421160.000417,35.93111615104259,-79.03160755546574,88.66673,0,295.0727113615819,1.781911133731471,6.931387363449477,-9999,7315.096288000001,0.1099853515625,-0.61212158203125,-0.8905792236328125,7315.051418,-0.2564288061644955,0.1133731184573672,0.6097910912395115,-0.3241099417209625,0.04711255058646202,0.05990516394376755,0.01200715452432632,0.0225483775138855,-0.01641988754272461,XArbitraryZVertical,0.3041613952271277,0.01527741341659284,-0.1049019994718601,0.9467037688128767,0.09274064749479294,-0.5726962089538574,-0.8145049214363098,7300.38201825,unknown,2,2020-05-25 11:39:05.605 -0400,2020-05-25 10:03:58.294 -0400,2281,1.124595,0,0,1799.878,0,0,2020-05-25 11:39:03.060 -0400,612113958.3737136,0,0.390625,101.2327,1,0.85
2020-05-25 11:39:20.355 -0400,1590421160.000417,35.93111615104259,-79.03160755546574,88.66673,0,295.0727113615819,1.781911133731471,6.931387363449477,-9999,7315.131188,0.1294403076171875,-0.5673980712890625,-0.8916015625,7315.111245,-0.2542293877867693,0.1171015233599205,0.5869047062845666,-0.4567233622074127,0.04339450970292091,0.01364935003221035,0.03146672993898392,-0.05391812324523926,-0.06849753856658936,XArbitraryZVertical,0.2935345263784603,0.01895654936236413,-0.1043552168122108,0.9500463077969652,0.09728291630744934,-0.5537863373756409,-0.8269562721252441,7300.38201825,unknown,2,2020-05-25 11:39:05.605 -0400,2020-05-25 10:03:58.294 -0400,2281,1.124595,0,0,1799.878,0,0,2020-05-25 11:39:03.060 -0400,612113958.3737136,0,0.390625,101.2327,1,0.85
2020-05-25 11:39:20.390 -0400,1590421160.000417,35.93111615104259,-79.03160755546574,88.66673,0,295.0727113615819,1.781911133731471,6.931387363449477,-9999,7315.166087000001,0.1228179931640625,-0.595611572265625,-0.909149169921875,7315.111245,-0.2542293877867693,0.1171015233599205,0.5869047062845666,-0.4567233622074127,0.04339450970292091,0.01364935003221035,0.03146672993898392,-0.05391812324523926,-0.06849753856658936,XArbitraryZVertical,0.2935345263784603,0.01895654936236413,-0.1043552168122108,0.9500463077969652,0.09728291630744934,-0.5537863373756409,-0.8269562721252441,7300.38201825,unknown,2,2020-05-25 11:39:05.605 -0400,2020-05-25 10:03:58.294 -0400,2281,1.124595,0,0,1799.878,0,0,2020-05-25 11:39:03.060 -0400,612113958.3737136,0,0.390625,101.2327,1,0.85
2020-05-25 11:39:20.425 -0400,1590421160.000417,35.93111615104259,-79.03160755546574,88.66673,0,295.0727113615819,1.781911133731471,6.931387363449477,-9999,7315.200987,0.1544189453125,-0.5876922607421875,-0.884918212890625,7315.171073,-0.255429069720115,0.1244949545356409,0.5779811359983812,-0.005257653072476387,0.1923927813768387,-0.09885141253471375,0.01880998909473419,-0.04925549030303955,-0.07807093858718872,XArbitraryZVertical,0.289710939004326,0.02291450802061293,-0.1042657525443368,0.9511420513245207,0.1040037646889687,-0.5463340878486633,-0.8310849666595459,7300.38201825,unknown,2,2020-05-25 11:39:05.605 -0400,2020-05-25 10:03:58.294 -0400,2281,1.124595,0,0,1799.878,0,0,2020-05-25 11:39:03.060 -0400,612113958.3737136,0,0.390625,101.2327,1,0.85
2020-05-25 11:39:20.460 -0400,1590421160.000417,35.93111615104259,-79.03160755546574,88.66673,0,295.0727113615819,1.781911133731471,6.931387363449477,-9999,7315.235886,0.1280059814453125,-0.5472259521484375,-0.8667144775390625,7315.2309,-0.2569205220203142,0.1316783203434513,0.5692339136681764,-0.1959144175052643,0.06785538047552109,0.005720587447285652,0.02799683809280396,-0.012947678565979,-0.03377407789230347,XArbitraryZVertical,0.2859621741098837,0.02673119079228664,-0.1043656069166979,0.9521653645482071,0.1105942577123642,-0.5389869213104248,-0.8350221514701843,7300.38201825,unknown,2,2020-05-25 11:39:05.605 -0400,2020-05-25 10:03:58.294 -0400,2281,1.124595,0,0,1799.878,0,0,2020-05-25 11:39:03.060 -0400,612113958.3737136,0,0.390625,101.2327,1,0.85
2020-05-25 11:39:20.495 -0400,1590421160.000417,35.93111615104259,-79.03160755546574,88.66673,0,295.0727113615819,1.781911133731471,6.931387363449477,-9999,7315.270785000001,0.118316650390625,-0.52471923828125,-0.8467864990234375,7315.2309,-0.2569205220203142,0.1316783203434513,0.5692339136681764,-0.1959144175052643,0.06785538047552109,0.005720587447285652,0.02799683809280396,-0.012947678565979,-0.03377407789230347,XArbitraryZVertical,0.2859621741098837,0.02673119079228664,-0.1043656069166979,0.9521653645482071,0.1105942577123642,-0.5389869213104248,-0.8350221514701843,7300.38201825,unknown,2,2020-05-25 11:39:05.605 -0400,2020-05-25 10:03:58.294 -0400,2281,1.124595,0,0,1799.878,0,0,2020-05-25 11:39:03.060 -0400,612113958.3737136,0,0.390625,101.2327,1,0.85
2020-05-25 11:39:20.529 -0400,1590421160.000417,35.93111615104259,-79.03160755546574,88.66673,0,295.0727113615819,1.781911133731471,6.931387363449477,-9999,7315.305685,0.12896728515625,-0.495086669921875,-0.8243255615234375,7315.290728000001,-0.2551748599323556,0.1367910033947575,0.5550973798344639,-0.3601028323173523,0.05640058964490891,0.02470329776406288,0.01450738310813904,0.008233129978179932,0.009643912315368652,XArbitraryZVertical,0.2794996096168363,0.0304099466320201,-0.1035124250415532,0.9540651527967303,0.1158895045518875,-0.5270260572433472,-0.8419104218482971,7300.38201825,unknown,2,2020-05-25 11:39:05.605 -0400,2020-05-25 10:03:58.294 -0400,2281,1.124595,0,0,1799.878,0,0,2020-05-25 11:39:03.060 -0400,612113958.3737136,0,0.390625,101.2327,1,0.85
2020-05-25 11:39:20.565 -0400,1590421160.000417,35.93111615104259,-79.03160755546574,88.66673,0,295.0727113615819,1.781911133731471,6.931387363449477,-9999,7315.34058325,0.112152099609375,-0.4686737060546875,-0.8349609375,7315.290728000001,-0.2551748599323556,0.1367910033947575,0.5550973798344639,-0.3601028323173523,0.05640058964490891,0.02470329776406288,0.01450738310813904,0.008233129978179932,0.009643912315368652,XArbitraryZVertical,0.2794996096168363,0.0304099466320201,-0.1035124250415532,0.9540651527967303,0.1158895045518875,-0.5270260572433472,-0.8419104218482971,7300.38201825,unknown,2,2020-05-25 11:39:05.605 -0400,2020-05-25 10:03:58.294 -0400,2281,1.124595,0,0,1799.878,0,0,2020-05-25 11:39:03.060 -0400,612113958.3737136,0,0.390625,101.2327,1,0.85
2020-05-25 11:39:20.599 -0400,1590421160.000417,35.93111615104259,-79.03160755546574,88.66673,0,295.0727113615819,1.781911133731471,6.931387363449477,-9999,7315.37548225,0.1198883056640625,-0.46038818359375,-0.831298828125,7315.350554250001,-0.2508904780587795,0.1388182992250034,0.5334459627790867,-0.3659764230251312,0.105774000287056,-0.01623424701392651,-0.00695425271987915,0.03867512941360474,0.01689440011978149,XArbitraryZVertical,0.2692413567887489,0.03347761343948323,-0.1022657705385294,0.9570423520199161,0.1191473379731178,-0.5085035562515259,-0.8527767062187195,7300.38201825,unknown,2,2020-05-25 11:39:05.605 -0400,2020-05-25 10:03:58.294 -0400,2281,1.124595,0,0,1799.878,0,0,2020-05-25 11:39:03.060 -0400,612113958.3737136,0,0.390625,101.2327,1,0.85
2020-05-25 11:39:20.634 -0400,1590421160.000417,35.93111615104259,-79.03160755546574,88.66673,0,295.0727113615819,1.781911133731471,6.931387363449477,-9999,7315.41038225,0.1205291748046875,-0.463958740234375,-0.8622894287109375,7315.350554250001,-0.2508904780587795,0.1388182992250034,0.5334459627790867,-0.3659764230251312,0.105774000287056,-0.01623424701392651,-0.00695425271987915,0.03867512941360474,0.01689440011978149,XArbitraryZVertical,0.2692413567887489,0.03347761343948323,-0.1022657705385294,0.9570423520199161,0.1191473379731178,-0.5085035562515259,-0.8527767062187195,7300.38201825,unknown,2,2020-05-25 11:39:05.605 -0400,2020-05-25 10:03:58.294 -0400,2281,1.124595,0,0,1799.878,0,0,2020-05-25 11:39:03.060 -0400,612113958.3737136,0,0.390625,101.2327,1,0.85
2020-05-25 11:39:20.669 -0400,1590421160.000417,35.93111615104259,-79.03160755546574,88.66673,0,295.0727113615819,1.781911133731471,6.931387363449477,-9999,7315.44528125,0.1353302001953125,-0.4872894287109375,-0.904296875,7315.41038225,-0.2514960492097059,0.1470931258617993,0.5204848259519002,-0.1055224686861038,0.1636428982019424,-0.08670153468847275,-0.008813023567199707,0.03471976518630981,0.006427764892578125,XArbitraryZVertical,0.26349832759293,0.03826098629309017,-0.1021079046402253,0.9584772768459201,0.1271550953388214,-0.4973008334636688,-0.8582094311714172,7300.38201825,unknown,2,2020-05-25 11:39:05.605 -0400,2020-05-25 10:03:58.294 -0400,2281,1.124595,0,0,1799.878,0,0,2020-05-25 11:39:03.060 -0400,612113958.3737136,0,0.390625,101.2327,1,0.85
2020-05-25 11:39:20.704 -0400,1590421160.000417,35.93111615104259,-79.03160755546574,88.66673,0,295.0727113615819,1.781911133731471,6.931387363449477,-9999,7315.480181250001,0.152252197265625,-0.48291015625,-0.927337646484375,7315.47020925,-0.2576690622765322,0.1590481807242397,0.5142341355862109,0.05618546530604362,0.1078872159123421,-0.111822672188282,0.01210834085941315,0.003514707088470459,-0.05884307622909546,XArbitraryZVertical,0.2612598031972339,0.04362416236500875,-0.1038285465458667,0.9586760746257238,0.137895330786705,-0.4918681681156158,-0.8596804738044739,7300.38201825,unknown,2,2020-05-25 11:39:05.605 -0400,2020-05-25 10:03:58.294 -0400,2281,1.124595,0,0,1799.878,0,0,2020-05-25 11:39:03.060 -0400,612113958.3737136,0,0.390625,101.2327,1,0.85
2020-05-25 11:39:20.744 -0400,1590421160.000417,35.93111615104259,-79.03160755546574,88.66673,0,295.0727113615819,1.781911133731471,6.931387363449477,-9999,7315.51508025,0.1324310302734375,-0.501007080078125,-0.9019927978515625,7315.47020925,-0.2576690622765322,0.1590481807242397,0.5142341355862109,0.05618546530604362,0.1078872159123421,-0.111822672188282,0.01210834085941315,0.003514707088470459,-0.05884307622909546,XArbitraryZVertical,0.2612598031972339,0.04362416236500875,-0.1038285465458667,0.9586760746257238,0.137895330786705,-0.4918681681156158,-0.8596804738044739,7300.38201825,unknown,2,2020-05-25 11:39:05.605 -0400,2020-05-25 10:03:58.294 -0400,2281,1.124595,0,0,1799.878,0,0,2020-05-25 11:39:03.060 -0400,612113958.3737136,0,0.390625,101.2327,1,0.85
2020-05-25 11:39:20.774 -0400,1590421160.000417,35.93111615104259,-79.03160755546574,88.66673,0,295.0727113615819,1.781911133731471,6.931387363449477,-9999,7315.54997925,0.17254638671875,-0.5475006103515625,-0.891021728515625,7315.530037250001,-0.2703171090289023,0.1735290820549033,0.5277930167828599,0.2748797237873077,0.143694743514061,-0.1788205504417419,-0.006652891635894775,-0.01715010404586792,-0.04487287998199463,XArbitraryZVertical,0.2687653943549414,0.04787697594033885,-0.1071957752323397,0.9560239910985286,0.1491641104221344,-0.5036278963088989,-0.8509458899497986,7300.38201825,unknown,2,2020-05-25 11:39:05.605 -0400,2020-05-25 10:03:58.294 -0400,2281,1.124595,0,0,1799.878,0,0,2020-05-25 11:39:03.060 -0400,612113958.3737136,0,0.390625,101.2327,1,0.85
2020-05-25 11:39:20.809 -0400,1590421160.000417,35.93111615104259,-79.03160755546574,88.66673,0,295.0727113615819,1.781911133731471,6.931387363449477,-9999,7315.58487925,0.150726318359375,-0.534210205078125,-0.8747406005859375,7315.530037250001,-0.2703171090289023,0.1735290820549033,0.5277930167828599,0.2748797237873077,0.143694743514061,-0.1788205504417419,-0.006652891635894775,-0.01715010404586792,-0.04487287998199463,XArbitraryZVertical,0.2687653943549414,0.04787697594033885,-0.1071957752323397,0.9560239910985286,0.1491641104221344,-0.5036278963088989,-0.8509458899497986,7300.38201825,unknown,2,2020-05-25 11:39:05.605 -0400,2020-05-25 10:03:58.294 -0400,2281,1.124595,0,0,1799.878,0,0,2020-05-25 11:39:03.060 -0400,612113958.3737136,0,0.390625,101.2327,1,0.85
2020-05-25 11:39:20.844 -0400,1590421160.000417,35.93111615104259,-79.03160755546574,88.66673,0,295.0727113615819,1.781911133731471,6.931387363449477,-9999,7315.61977825,0.1566009521484375,-0.5343017578125,-0.8645782470703125,7315.589864250001,-0.2778548450974081,0.1788695690547528,0.5295016021350915,-0.004213960841298103,0.011705556884408,-0.09165478497743607,-0.002832844853401184,-0.02908724546432495,-0.02545726299285889,XArbitraryZVertical,0.2700494673382517,0.04928176776770484,-0.1099758657552284,0.9552747362757891,0.1535530984401703,-0.5051032304763794,-0.8492891788482666,7300.38201825,unknown,2,2020-05-25 11:39:05.605 -0400,2020-05-25 10:03:58.294 -0400,2281,1.124595,0,0,1799.878,0,0,2020-05-25 11:39:03.060 -0400,612113958.3737136,0,0.390625,101.2327,1,0.85
2020-05-25 11:39:20.878 -0400,1590421160.000417,35.93111615104259,-79.03160755546574,88.66673,0,295.0727113615819,1.781911133731471,6.931387363449477,-9999,7315.654678250001,0.157012939453125,-0.5312652587890625,-0.8575897216796875,7315.64969225,-0.2806635846407786,0.1804666994359939,0.5266976111223968,-0.04169156029820442,-0.02141963876783848,-0.01187863014638424,0.006558805704116821,-0.03143292665481567,-0.004553437232971191,XArbitraryZVertical,0.2688771590788817,0.04988636266651394,-0.1112732979610712,0.9554238583372248,0.1551629453897476,-0.5026812553405762,-0.8504328727722168,7300.38201825,unknown,2,2020-05-25 11:39:05.605 -0400,2020-05-25 10:03:58.294 -0400,2281,1.124595,0,0,1799.878,0,0,2020-05-25 11:39:03.060 -0400,612113958.3737136,0,0.390625,101.2327,1,0.85
2020-05-25 11:39:20.913 -0400,1590421160.000417,35.93111615104259,-79.03160755546574,88.66673,0,295.0727113615819,1.781911133731471,6.931387363449477,-9999,7315.68957725,0.153106689453125,-0.5145263671875,-0.8527374267578125,7315.64969225,-0.2806635846407786,0.1804666994359939,0.5266976111223968,-0.04169156029820442,-0.02141963876783848,-0.01187863014638424,0.006558805704116821,-0.03143292665481567,-0.004553437232971191,XArbitraryZVertical,0.2688771590788817,0.04988636266651394,-0.1112732979610712,0.9554238583372248,0.1551629453897476,-0.5026812553405762,-0.8504328727722168,7300.38201825,unknown,2,2020-05-25 11:39:05.605 -0400,2020-05-25 10:03:58.294 -0400,2281,1.124595,0,0,1799.878,0,0,2020-05-25 11:39:03.060 -0400,612113958.3737136,0,0.390625,101.2327,1,0.85
2020-05-25 11:39:20.948 -0400,1590421160.000417,35.93111615104259,-79.03160755546574,88.66673,0,295.0727113615819,1.781911133731471,6.931387363449477,-9999,7315.72447625,0.164520263671875,-0.5091705322265625,-0.85614013671875,7315.70951925,-0.2791589125244766,0.1792008422093795,0.5247742829201427,-0.08477511256933212,-0.003433980513364077,0.03507642820477486,0.006212159991264343,-0.01022344827651978,-0.001561641693115234,XArbitraryZVertical,0.2678567338177882,0.04963467762075557,-0.1108415154624917,0.955773692881159,0.1542583256959915,-0.501017689704895,-0.8515783548355103,7300.38201825,unknown,2,2020-05-25 11:39:05.605 -0400,2020-05-25 10:03:58.294 -0400,2281,1.124595,0,0,1799.878,0,0,2020-05-25 11:39:03.060 -0400,612113960.9263265,0,0.359375,101.2334,1,0.85
2020-05-25 11:39:20.983 -0400,1590421160.000417,35.93111615104259,-79.03160755546574,88.66673,0,295.0727113615819,1.781911133731471,6.931387363449477,-9999,7315.75937625,0.1622772216796875,-0.50384521484375,-0.85748291015625,7315.70951925,-0.2791589125244766,0.1792008422093795,0.5247742829201427,-0.08477511256933212,-0.003433980513364077,0.03507642820477486,0.006212159991264343,-0.01022344827651978,-0.001561641693115234,XArbitraryZVertical,0.2678567338177882,0.04963467762075557,-0.1108415154624917,0.955773692881159,0.1542583256959915,-0.501017689704895,-0.8515783548355103,7300.38201825,unknown,2,2020-05-25 11:39:05.605 -0400,2020-05-25 10:03:58.294 -0400,2281,1.124595,0,0,1799.878,0,0,2020-05-25 11:39:03.060 -0400,612113960.9263265,0,0.359375,101.2334,1,0.85
2020-05-25 11:39:21.018 -0400,1590421160.000417,35.93111615104259,-79.03160755546574,88.66673,0,295.0727113615819,1.781911133731471,6.931387363449477,-9999,7315.79427525,0.1559295654296875,-0.4977569580078125,-0.8620452880859375,7315.76934725,-0.2745186982274934,0.1768006673800687,0.5206177010779964,-0.1521632075309753,-0.002225704491138458,0.04694951698184013,0.009097114205360413,-0.00398331880569458,-0.002965807914733887,XArbitraryZVertical,0.2656357438604873,0.0494292482182935,-0.1091937344132328,0.9565934480005245,0.1525789052248001,-0.4974161088466644,-0.8539888262748718,7300.38201825,unknown,2,2020-05-25 11:39:05.605 -0400,2020-05-25 10:03:58.294 -0400,2281,1.124595,0,0,1799.878,0,0,2020-05-25 11:39:03.060 -0400,612113960.9263265,0,0.359375,101.2334,1,0.85
2020-05-25 11:39:21.053 -0400,1590421160.000417,35.93111615104259,-79.03160755546574,88.66673,0,295.0727113615819,1.781911133731471,6.931387363449477,-9999,7315.829175250001,0.17767333984375,-0.4882659912109375,-0.8443603515625,7315.76934725,-0.2745186982274934,0.1768006673800687,0.5206177010779964,-0.1521632075309753,-0.002225704491138458,0.04694951698184013,0.009097114205360413,-0.00398331880569458,-0.002965807914733887,XArbitraryZVertical,0.2656357438604873,0.0494292482182935,-0.1091937344132328,0.9565934480005245,0.1525789052248001,-0.4974161088466644,-0.8539888262748718,7300.38201825,unknown,2,2020-05-25 11:39:05.605 -0400,2020-05-25 10:03:58.294 -0400,2281,1.124595,0,0,1799.878,0,0,2020-05-25 11:39:03.060 -0400,612113960.9263265,0,0.359375,101.2334,1,0.85
2020-05-25 11:39:21.088 -0400,1590421160.000417,35.93111615104259,-79.03160755546574,88.66673,0,295.0727113615819,1.781911133731471,6.931387363449477,-9999,7315.86407425,0.1473541259765625,-0.4866790771484375,-0.85894775390625,7315.829175250001,-0.2687386511578779,0.175413375677872,0.510509646459591,-0.1057211384177208,-0.036675825715065,0.09087812155485153,0.02917245030403137,-0.0003876388072967529,0.01112443208694458,XArbitraryZVertical,0.2606086634320335,0.05029698811808803,-0.1072089994589498,0.9581541679767778,0.152263730764389,-0.4886219799518585,-0.8591066598892212,7300.38201825,unknown,2,2020-05-25 11:39:05.605 -0400,2020-05-25 10:03:58.294 -0400,2281,1.124595,0,0,1799.878,0,0,2020-05-25 11:39:03.060 -0400,612113960.9263265,0,0.359375,101.2334,1,0.85
2020-05-25 11:39:21.123 -0400,1590421160.000417,35.93111615104259,-79.03160755546574,88.66673,0,295.0727113615819,1.781911133731471,6.931387363449477,-9999,7315.89897325,0.17352294921875,-0.4620361328125,-0.9050445556640625,7315.889002250001,-0.2615077840232166,0.1695862263203023,0.4888388453773942,-0.691120982170105,-0.1814884096384048,0.1492131948471069,0.03001797199249268,-0.01412981748580933,-0.02505522966384888,XArbitraryZVertical,0.2497794020559139,0.05003479505482229,-0.1057321079481841,0.9612113949502721,0.1490074396133423,-0.469601035118103,-0.8702135682106018,7300.38201825,unknown,2,2020-05-25 11:39:05.605 -0400,2020-05-25 10:03:58.294 -0400,2281,1.124595,0,0,1799.878,0,0,2020-05-25 11:39:03.060 -0400,612113960.9263265,0,0.359375,101.2334,1,0.85
2020-05-25 11:39:21.157 -0400,1590421160.000417,35.93111615104259,-79.03160755546574,88.66673,0,295.0727113615819,1.781911133731471,6.931387363449477,-9999,7315.93387325,0.116668701171875,-0.3956146240234375,-0.888214111328125,7315.889002250001,-0.2615077840232166,0.1695862263203023,0.4888388453773942,-0.691120982170105,-0.1814884096384048,0.1492131948471069,0.03001797199249268,-0.01412981748580933,-0.02505522966384888,XArbitraryZVertical,0.2497794020559139,0.05003479505482229,-0.1057321079481841,0.9612113949502721,0.1490074396133423,-0.469601035118103,-0.8702135682106018,7300.38201825,unknown,2,2020-05-25 11:39:05.605 -0400,2020-05-25 10:03:58.294 -0400,2281,1.124595,0,0,1799.878,0,0,2020-05-25 11:39:03.060 -0400,612113960.9263265,0,0.359375,101.2334,1,0.85
2020-05-25 11:39:21.192 -0400,1590421160.000417,35.93111615104259,-79.03160755546574,88.66673,0,295.0727113615819,1.781911133731471,6.931387363449477,-9999,7315.96877225,0.1472320556640625,-0.4595947265625,-0.868896484375,7315.94883025,-0.2523315581398412,0.160197421983384,0.4798309811194057,0.2181469351053238,0.0214143767952919,0.0376083105802536,-0.02326498925685883,0.05503106117248535,-0.003913521766662598,XArbitraryZVertical,0.2447558360173284,0.04729935831552861,-0.1029737631502355,0.9629401357045784,0.1414997577667236,-0.4616292417049408,-0.8757147192955017,7300.38201825,unknown,2,2020-05-25 11:39:05.605 -0400,2020-05-25 10:03:58.294 -0400,2281,1.124595,0,0,1799.878,0,0,2020-05-25 11:39:03.060 -0400,612113960.9263265,0,0.359375,101.2334,1,0.85
2020-05-25 11:39:21.227 -0400,1590421160.000417,35.93111615104259,-79.03160755546574,88.66673,0,295.0727113615819,1.781911133731471,6.931387363449477,-9999,7316.00367125,0.1467437744140625,-0.4697418212890625,-0.8852691650390625,7315.94883025,-0.2523315581398412,0.160197421983384,0.4798309811194057,0.2181469351053238,0.0214143767952919,0.0376083105802536,-0.02326498925685883,0.05503106117248535,-0.003913521766662598,XArbitraryZVertical,0.2447558360173284,0.04729935831552861,-0.1029737631502355,0.9629401357045784,0.1414997577667236,-0.4616292417049408,-0.8757147192955017,7300.38201825,unknown,2,2020-05-25 11:39:05.605 -0400,2020-05-25 10:03:58.294 -0400,2281,1.124595,0,0,1799.878,0,0,2020-05-25 11:39:03.060 -0400,612113960.9263265,0,0.359375,101.2334,1,0.85
2020-05-25 11:39:21.262 -0400,1590421161.000423,35.93111615104259,-79.03160755546574,88.66673,0,295.0727113615819,2.006175220429499,7.279634724163513,-9999,7316.03857125,0.133941650390625,-0.4228515625,-0.8973388671875,7316.00865725,-0.2493348946917735,0.1580496427540095,0.4803400475386074,-0.1871896386146545,-0.09033133089542389,0.02394100278615952,0.007156625390052795,-0.007642924785614014,-0.009489595890045166,XArbitraryZVertical,0.2448194754214961,0.04659636067055895,-0.1017666833702493,0.963086540870323,0.1395815908908844,-0.4620807766914368,-0.8757843971252441,7300.38201825,unknown,2,2020-05-25 11:39:05.605 -0400,2020-05-25 10:03:58.294 -0400,2281,1.124595,0,0,1799.878,0,0,2020-05-25 11:39:03.060 -0400,612113960.9263265,0,0.359375,101.2334,1,0.85
2020-05-25 11:39:21.297 -0400,1590421161.000423,35.93111615104259,-79.03160755546574,88.66673,0,295.0727113615819,2.006175220429499,7.279634724163513,-9999,7316.07347025,0.136566162109375,-0.4439239501953125,-0.8855133056640625,7316.068485250001,-0.2484151678505279,0.1553569532546221,0.4759135500909261,0.05852532014250755,0.03036739304661751,-0.04637700319290161,-0.006760448217391968,0.02237772941589355,-0.008462727069854736,XArbitraryZVertical,0.2425391116482832,0.04571813833438482,-0.1018835843279737,0.9636930763435823,0.1375380158424377,-0.4581506550312042,-0.8781692385673523,7300.38201825,unknown,2,2020-05-25 11:39:05.605 -0400,2020-05-25 10:03:58.294 -0400,2281,1.124595,0,0,1799.878,0,0,2020-05-25 11:39:03.060 -0400,612113960.9263265,0,0.359375,101.2334,1,0.85
2020-05-25 11:39:21.332 -0400,1590421161.000423,35.93111615104259,-79.03160755546574,88.66673,0,295.0727113615819,2.006175220429499,7.279634724163513,-9999,7316.10837025,0.1497802734375,-0.4583892822265625,-0.8915252685546875,7316.068485250001,-0.2484151678505279,0.1553569532546221,0.4759135500909261,0.05852532014250755,0.03036739304661751,-0.04637700319290161,-0.006760448217391968,0.02237772941589355,-0.008462727069854736,XArbitraryZVertical,0.2425391116482832,0.04571813833438482,-0.1018835843279737,0.9636930763435823,0.1375380158424377,-0.4581506550312042,-0.8781692385673523,7300.38201825,unknown,2,2020-05-25 11:39:05.605 -0400,2020-05-25 10:03:58.294 -0400,2281,1.124595,0,0,1799.878,0,0,2020-05-25 11:39:03.060 -0400,612113960.9263265,0,0.359375,101.2334,1,0.85
2020-05-25 11:39:21.367 -0400,1590421161.000423,35.93111615104259,-79.03160755546574,88.66673,0,295.0727113615819,2.006175220429499,7.279634724163513,-9999,7316.14326925,0.1343231201171875,-0.439788818359375,-0.8893585205078125,7316.128312250001,-0.2514411558459622,0.1563073868761785,0.4757490872833123,0.05892745777964592,-0.007332049310207367,-0.06501086056232452,0.001868873834609985,0.01171845197677612,-0.008183836936950684,XArbitraryZVertical,0.2425782640629703,0.04582049948788776,-0.1032348458866714,0.9635344347192302,0.1383843123912811,-0.4580044746398926,-0.8781125545501709,7300.38201825,unknown,2,2020-05-25 11:39:05.605 -0400,2020-05-25 10:03:58.294 -0400,2281,1.124595,0,0,1799.878,0,0,2020-05-25 11:39:03.060 -0400,612113960.9263265,0,0.359375,101.2334,1,0.85
2020-05-25 11:39:21.402 -0400,1590421161.000423,35.93111615104259,-79.03160755546574,88.66673,0,295.0727113615819,2.006175220429499,7.279634724163513,-9999,7316.17816825,0.142852783203125,-0.4618682861328125,-0.87969970703125,7316.128312250001,-0.2514411558459622,0.1563073868761785,0.4757490872833123,0.05892745777964592,-0.007332049310207367,-0.06501086056232452,0.001868873834609985,0.01171845197677612,-0.008183836936950684,XArbitraryZVertical,0.2425782640629703,0.04582049948788776,-0.1032348458866714,0.9635344347192302,0.1383843123912811,-0.4580044746398926,-0.8781125545501709,7300.38201825,unknown,2,2020-05-25 11:39:05.605 -0400,2020-05-25 10:03:58.294 -0400,2281,1.124595,0,0,1799.878,0,0,2020-05-25 11:39:03.060 -0400,612113960.9263265,0,0.359375,101.2334,1,0.85
2020-05-25 11:39:21.437 -0400,1590421161.000423,35.93111615104259,-79.03160755546574,88.66673,0,295.0727113615819,2.006175220429499,7.279634724163513,-9999,7316.21306825,0.1553955078125,-0.4717254638671875,-0.87860107421875,7316.18814025,-0.2575040353079288,0.1597432259973764,0.4789053399171866,0.0271423626691103,-0.001880292315036058,-0.06207392364740372,0.007109314203262329,-0.003956496715545654,-0.00406879186630249,XArbitraryZVertical,0.2444100555844925,0.04651381825174503,-0.1055690514280033,0.9627852244991396,0.1411699056625366,-0.4608079493045807,-0.8762003779411316,7300.38201825,unknown,2,2020-05-25 11:39:05.605 -0400,2020-05-25 10:03:58.294 -0400,2281,1.124595,0,0,1799.878,0,0,2020-05-25 11:39:03.060 -0400,612113960.9263265,0,0.359375,101.2334,1,0.85
2020-05-25 11:39:21.472 -0400,1590421161.000423,35.93111615104259,-79.03160755546574,88.66673,0,295.0727113615819,2.006175220429499,7.279634724163513,-9999,7316.24796725,0.13250732421875,-0.468292236328125,-0.86798095703125,7316.18814025,-0.2575040353079288,0.1597432259973764,0.4789053399171866,0.0271423626691103,-0.001880292315036058,-0.06207392364740372,0.007109314203262329,-0.003956496715545654,-0.00406879186630249,XArbitraryZVertical,0.2444100555844925,0.04651381825174503,-0.1055690514280033,0.9627852244991396,0.1411699056625366,-0.4608079493045807,-0.8762003779411316,7300.38201825,unknown,2,2020-05-25 11:39:05.605 -0400,2020-05-25 10:03:58.294 -0400,2281,1.124595,0,0,1799.878,0,0,2020-05-25 11:39:03.060 -0400,612113960.9263265,0,0.359375,101.2334,1,0.85
2020-05-25 11:39:21.506 -0400,1590421161.000423,35.93111615104259,-79.03160755546574,88.66673,0,295.0727113615819,2.006175220429499,7.279634724163513,-9999,7316.282867250001,0.16156005859375,-0.479400634765625,-0.8816375732421875,7316.24796725,-0.2592578103795747,0.1581912699893854,0.4757582508442543,-0.1476438194513321,-0.01322748884558678,-0.03622081875801086,-0.006086409091949463,-0.006278872489929199,0.01042497158050537,XArbitraryZVertical,0.2428605367710124,0.04577860619436434,-0.1067706529368493,0.9630799885535121,0.1400376707315445,-0.4580126106739044,-0.8778461813926697,7300.38201825,unknown,2,2020-05-25 11:39:05.605 -0400,2020-05-25 10:03:58.294 -0400,2281,1.124595,0,0,1799.878,0,0,2020-05-25 11:39:03.060 -0400,612113960.9263265,0,0.359375,101.2334,1,0.85
2020-05-25 11:39:21.541 -0400,1590421161.000423,35.93111615104259,-79.03160755546574,88.66673,0,295.0727113615819,2.006175220429499,7.279634724163513,-9999,7316.31776675,0.11212158203125,-0.47723388671875,-0.8406219482421875,7316.307795250001,-0.2542565191856337,0.1546463852307785,0.4470761292070266,-0.9304768443107605,0.03071200475096703,0.04291882365942001,0.01152375340461731,-0.03980466723442078,0.01929134130477905,XArbitraryZVertical,0.2287851555403057,0.04669426349798485,-0.1062763504391038,0.96653097617636,0.13889180123806,-0.4323308765888214,-0.8909540176391602,7300.38201825,unknown,2,2020-05-25 11:39:05.605 -0400,2020-05-25 10:03:58.294 -0400,2281,1.124595,0,0,1799.878,0,0,2020-05-25 11:39:03.060 -0400,612113960.9263265,0,0.359375,101.2334,1,0.85
2020-05-25 11:39:21.576 -0400,1590421161.000423,35.93111615104259,-79.03160755546574,88.66673,0,295.0727113615819,2.006175220429499,7.279634724163513,-9999,7316.352665750001,0.142913818359375,-0.5414886474609375,-0.78582763671875,7316.307795250001,-0.2542565191856337,0.1546463852307785,0.4470761292070266,-0.9304768443107605,0.03071200475096703,0.04291882365942001,0.01152375340461731,-0.03980466723442078,0.01929134130477905,XArbitraryZVertical,0.2287851555403057,0.04669426349798485,-0.1062763504391038,0.96653097617636,0.13889180123806,-0.4323308765888214,-0.8909540176391602,7300.38201825,unknown,2,2020-05-25 11:39:05.605 -0400,2020-05-25 10:03:58.294 -0400,2281,1.124595,0,0,1799.878,0,0,2020-05-25 11:39:03.060 -0400,612113960.9263265,0,0.359375,101.2334,1,0.85
2020-05-25 11:39:21.611 -0400,1590421161.000423,35.93111615104259,-79.03160755546574,88.66673,0,295.0727113615819,2.006175220429499,7.279634724163513,-9999,7316.38756575,0.2204437255859375,-0.5391998291015625,-0.8836822509765625,7316.36762275,-0.2308994325847878,0.1594525631338766,0.2549587017691929,-7.032748222351074,0.02482029423117638,-0.2993145287036896,0.003285497426986694,-0.2979708909988403,0.1030251979827881,XArbitraryZVertical,0.1349866602726171,0.06387120644449744,-0.1038379390631569,0.9833192183078,0.1536450386047363,-0.2522054314613342,-0.9553981423377991,7300.38201825,unknown,2,2020-05-25 11:39:05.605 -0400,2020-05-25 10:03:58.294 -0400,2281,1.124595,0,0,1799.878,0,0,2020-05-25 11:39:03.060 -0400,612113960.9263265,0,0.359375,101.2334,1,0.85
2020-05-25 11:39:21.646 -0400,1590421161.000423,35.93111615104259,-79.03160755546574,88.66673,0,295.0727113615819,2.006175220429499,7.279634724163513,-9999,7316.42246475,0.2904510498046875,0.114837646484375,-0.1710662841796875,7316.36762275,-0.2308994325847878,0.1594525631338766,0.2549587017691929,-7.032748222351074,0.02482029423117638,-0.2993145287036896,0.003285497426986694,-0.2979708909988403,0.1030251979827881,XArbitraryZVertical,0.1349866602726171,0.06387120644449744,-0.1038379390631569,0.9833192183078,0.1536450386047363,-0.2522054314613342,-0.9553981423377991,7300.38201825,unknown,2,2020-05-25 11:39:05.605 -0400,2020-05-25 10:03:58.294 -0400,2281,1.124595,0,0,1799.878,0,0,2020-05-25 11:39:03.060 -0400,612113960.9263265,0,0.359375,101.2334,1,0.85
2020-05-25 11:39:21.681 -0400,1590421161.000423,35.93111615104259,-79.03160755546574,88.66673,0,295.0727113615819,2.006175220429499,7.279634724163513,-9999,7316.45736475,-0.00921630859375,0.92132568359375,0.48895263671875,7316.42745075,-0.1357301435469064,0.1328046535217504,-0.5290406305096936,-19.34076690673828,-1.221246242523193,-0.4635741114616394,0.1761340349912643,-0.3898878693580627,0.6846177577972412,XArbitraryZVertical,-0.2559264917793489,0.08158859079062417,-0.08261802901718274,0.9596974064122923,0.114312432706356,0.5047053694725037,-0.8556898832321167,7300.38201825,unknown,2,2020-05-25 11:39:05.605 -0400,2020-05-25 10:03:58.294 -0400,2281,1.124595,0,0,1799.878,0,0,2020-05-25 11:39:03.060 -0400,612113960.9263265,0,0.359375,101.2334,1,0.85
2020-05-25 11:39:21.716 -0400,1590421161.000423,35.93111615104259,-79.03160755546574,88.66673,0,295.0727113615819,2.006175220429499,7.279634724163513,-9999,7316.49226375,-0.2958526611328125,2.223220825195312,0.09307861328125,7316.48727775,2.486998294339525,2.666926201651902,-1.475812101127074,-12.04018497467041,0.363294243812561,-0.4227373898029327,-0.2402320802211761,0.9844177961349487,0.3667269945144653,XArbitraryZVertical,-0.7318118895313271,0.08141962174506842,-0.04549373010183339,0.6750944050521976,0.04334615543484688,0.9954923987388611,0.08435559272766113,7300.38201825,unknown,2,2020-05-25 11:39:05.605 -0400,2020-05-25 10:03:58.294 -0400,2281,1.124595,0,0,1799.878,0,0,2020-05-25 11:39:03.060 -0400,612113960.9263265,0,0.359375,101.2334,1,0.85
2020-05-25 11:39:21.755 -0400,1590421161.000423,35.93111615104259,-79.03160755546574,88.66673,0,295.0727113615819,2.006175220429499,7.279634724163513,-9999,7316.527162750001,0.0841217041015625,1.681533813476562,-0.235443115234375,7316.48727775,2.486998294339525,2.666926201651902,-1.475812101127074,-12.04018497467041,0.363294243812561,-0.4227373898029327,-0.2402320802211761,0.9844177961349487,0.3667269945144653,XArbitraryZVertical,-0.7318118895313271,0.08141962174506842,-0.04549373010183339,0.6750944050521976,0.04334615543484688,0.9954923987388611,0.08435559272766113,7300.38201825,unknown,2,2020-05-25 11:39:05.605 -0400,2020-05-25 10:03:58.294 -0400,2281,1.124595,0,0,1799.878,0,0,2020-05-25 11:39:03.060 -0400,612113960.9263265,0,0.359375,101.2334,1,0.85
2020-05-25 11:39:21.786 -0400,1590421161.000423,35.93111615104259,-79.03160755546574,88.66673,0,295.0727113615819,2.006175220429499,7.279634724163513,-9999,7316.56206275,0.13433837890625,0.71759033203125,0.2487335205078125,7316.547105750001,2.962465940648096,3.138318200157624,-1.485803508919058,6.547749519348145,-0.5420675873756409,-0.7753505110740662,0.1886410564184189,0.2407220005989075,-0.1028473377227783,XArbitraryZVertical,-0.7336548757868933,0.06477292935868059,-0.05930111144881812,0.6738236897535134,0.0002779694041237235,0.9963902831077576,0.08489001542329788,7300.38201825,unknown,2,2020-05-25 11:39:05.605 -0400,2020-05-25 10:03:58.294 -0400,2281,1.124595,0,0,1799.878,0,0,2020-05-25 11:39:03.060 -0400,612113960.9263265,0,0.359375,101.2334,1,0.85
2020-05-25 11:39:21.821 -0400,1590421161.000423,35.93111615104259,-79.03160755546574,88.66673,0,295.0727113615819,2.006175220429499,7.279634724163513,-9999,7316.59696175,0.0941314697265625,0.591217041015625,0.0944061279296875,7316.547105750001,2.962465940648096,3.138318200157624,-1.485803508919058,6.547749519348145,-0.5420675873756409,-0.7753505110740662,0.1886410564184189,0.2407220005989075,-0.1028473377227783,XArbitraryZVertical,-0.7336548757868933,0.06477292935868059,-0.05930111144881812,0.6738236897535134,0.0002779694041237235,0.9963902831077576,0.08489001542329788,7300.38201825,unknown,2,2020-05-25 11:39:05.605 -0400,2020-05-25 10:03:58.294 -0400,2281,1.124595,0,0,1799.878,0,0,2020-05-25 11:39:03.060 -0400,612113960.9263265,0,0.359375,101.2334,1,0.85
2020-05-25 11:39:21.855 -0400,1590421161.000423,35.93111615104259,-79.03160755546574,88.66673,0,295.0727113615819,2.006175220429499,7.279634724163513,-9999,7316.63186175,-0.0630645751953125,1.149429321289062,0.0175018310546875,7316.606932750001,-0.1539200990579855,0.003828709355251235,-1.512561065220395,-1.042517066001892,-0.415999174118042,0.6190477609634399,0.07901600003242493,-0.296455442905426,0.1333285570144653,XArbitraryZVertical,-0.6840813839947661,0.05414777832488449,-0.05723468488657248,0.7251378033891673,0.0002228371595265344,0.9983047842979431,-0.05820135772228241,7300.38201825,unknown,2,2020-05-25 11:39:05.605 -0400,2020-05-25 10:03:58.294 -0400,2281,1.124595,0,0,1799.878,0,0,2020-05-25 11:39:03.060 -0400,612113960.9263265,0,0.359375,101.2334,1,0.85
2020-05-25 11:39:21.890 -0400,1590421161.000423,35.93111615104259,-79.03160755546574,88.66673,0,295.0727113615819,2.006175220429499,7.279634724163513,-9999,7316.66676075,-0.024749755859375,1.18817138671875,-0.0291900634765625,7316.606932750001,-0.1539200990579855,0.003828709355251235,-1.512561065220395,-1.042517066001892,-0.415999174118042,0.6190477609634399,0.07901600003242493,-0.296455442905426,0.1333285570144653,XArbitraryZVertical,-0.6840813839947661,0.05414777832488449,-0.05723468488657248,0.7251378033891673,0.0002228371595265344,0.9983047842979431,-0.05820135772228241,7300.38201825,unknown,2,2020-05-25 11:39:05.605 -0400,2020-05-25 10:03:58.294 -0400,2281,1.124595,0,0,1799.878,0,0,2020-05-25 11:39:03.060 -0400,612113960.9263265,0,0.359375,101.2334,1,0.85
2020-05-25 11:39:21.925 -0400,1590421161.000423,35.93111615104259,-79.03160755546574,88.66673,0,295.0727113615819,2.006175220429499,7.279634724163513,-9999,7316.701659750001,0.0975799560546875,1.176498413085938,-0.2103118896484375,7316.66676075,0.4734414308189936,0.6186179082949801,-1.525328262805957,1.510059118270874,0.04009538888931274,0.4350432753562927,-0.06922116875648499,0.1974201798439026,0.01265287399291992,XArbitraryZVertical,-0.6913258143189462,0.05961648883903394,-0.04292217658501439,0.7187991147867691,0.02635814063251019,0.9989665150642395,-0.03702898696064949,7300.38201825,unknown,2,2020-05-25 11:39:05.605 -0400,2020-05-25 10:03:58.294 -0400,2281,1.124595,0,0,1799.878,0,0,2020-05-25 11:39:03.060 -0400,612113960.9263265,0,0.359375,101.2334,1,0.85
2020-05-25 11:39:21.960 -0400,1590421161.000423,35.93111615104259,-79.03160755546574,88.66673,0,295.0727113615819,2.006175220429499,7.279634724163513,-9999,7316.73655975,0.1186065673828125,1.16156005859375,-0.3916778564453125,7316.726588750001,0.04463777344229725,0.2000701350974671,-1.254806637312089,7.641502857208252,-0.04728399217128754,0.6109039187431335,0.0598965659737587,0.253360390663147,-0.03258228302001953,XArbitraryZVertical,-0.5857687252610245,0.06779312636617998,-0.04063605244888701,0.8066149321278411,0.06175923720002174,0.9504892826080322,-0.3045581877231598,7300.38201825,unknown,2,2020-05-25 11:39:05.605 -0400,2020-05-25 10:03:58.294 -0400,2281,1.124595,0,0,1799.878,0,0,2020-05-25 11:39:03.060 -0400,612113960.9263265,0,0.359375,101.2334,1,0.85
2020-05-25 11:39:21.995 -0400,1590421161.000423,35.93111615104259,-79.03160755546574,88.66673,0,295.0727113615819,2.006175220429499,7.279634724163513,-9999,7316.77145875,0.085540771484375,0.9395751953125,-0.3864898681640625,7316.726588750001,0.04463777344229725,0.2000701350974671,-1.254806637312089,7.641502857208252,-0.04728399217128754,0.6109039187431335,0.0598965659737587,0.253360390663147,-0.03258228302001953,XArbitraryZVertical,-0.5857687252610245,0.06779312636617998,-0.04063605244888701,0.8066149321278411,0.06175923720002174,0.9504892826080322,-0.3045581877231598,7300.38201825,unknown,2,2020-05-25 11:39:05.605 -0400,2020-05-25 10:03:58.294 -0400,2281,1.124595,0,0,1799.878,0,0,2020-05-25 11:39:03.060 -0400,612113960.9263265,0,0.359375,101.2334,1,0.85
2020-05-25 11:39:22.030 -0400,1590421161.000423,35.93111615104259,-79.03160755546574,88.66673,0,295.0727113615819,2.006175220429499,7.279634724163513,-9999,7316.80635875,0.119384765625,0.7468109130859375,-0.7776641845703125,7316.786415750001,-0.06122889775960481,0.0985728942396828,-0.6972721464469828,10.29922962188721,-0.3855262398719788,0.2129039019346237,0.02230139076709747,0.270778477191925,0.2595697641372681,XArbitraryZVertical,-0.3396242766621917,0.05672497584678284,-0.04555560122939825,0.9377430862397177,0.075443334877491,0.6421289443969727,-0.7628752589225769,7300.38201825,unknown,2,2020-05-25 11:39:05.605 -0400,2020-05-25 10:03:58.294 -0400,2281,1.124595,0,0,1799.878,0,0,2020-05-25 11:39:03.060 -0400,612113960.9263265,0,0.359375,101.2334,1,0.85
